time,ax,ay,az,wx,wy,wz
0.001,0.02,-0.02,0.3,0.02,0.04,0
0.002,0.02,-0.02,0.3,0.03,0.04,0
0.018,0.02,-0.02,0.3,0.02,0.04,0
0.019,0.02,-0.02,0.3,0.02,0.04,0
0.019,0.02,-0.02,0.3,0.02,0.04,0
0.019,0.02,-0.02,0.3,0.02,0.04,0
0.019,0.02,-0.02,0.3,0.02,0.04,0
0.019,0.02,-0.02,0.3,0.02,0.04,0
0.02,0.02,-0.02,0.3,0.02,0.04,0
0.02,0.02,-0.02,0.3,0.02,0.03,0
0.02,-0.02,0.13,0.19,0.02,0.03,0
0.02,-0.01,0.12,0.19,0.02,0.03,0
0.02,-0.01,0.12,0.19,0.01,0.03,0
0.02,-0.01,0.12,0.19,0.01,0.02,0
0.02,-0.01,0.12,0.19,0.01,0.02,0
0.021,0,0.11,0.17,0.01,0.02,0
0.021,0,0.11,0.17,0.01,0.01,0
0.022,0,0.11,0.17,0,0.01,0
0.024,0,0.11,0.17,0,0,0
0.026,0,0.11,0.17,-0.01,-0.01,0
0.029,0,0.11,0.17,-0.01,-0.01,0
0.031,-0.01,0.06,0.15,-0.01,-0.01,0
0.031,-0.01,0.06,0.15,-0.01,-0.02,0
0.032,-0.01,0.06,0.15,-0.01,-0.02,0
0.034,-0.01,0.06,0.15,-0.02,-0.03,0
0.036,-0.01,0.06,0.15,-0.02,-0.03,0
0.053,-0.01,0.06,0.15,-0.02,-0.03,0
0.053,-0.01,0.06,0.15,-0.02,-0.03,0
0.053,-0.01,0.06,0.15,-0.02,-0.03,0
0.053,-0.01,0.06,0.15,-0.02,-0.03,0
0.053,-0.01,0.06,0.15,-0.02,-0.03,0
0.054,-0.01,0.06,0.15,-0.02,-0.03,0
0.054,-0.01,0.06,0.15,-0.02,-0.03,0
0.054,-0.01,0.06,0.15,-0.01,-0.02,0
0.054,0.02,-0.05,0.22,-0.01,-0.02,0
0.054,0.01,-0.05,0.22,-0.01,-0.02,0
0.055,0.01,-0.05,0.22,-0.02,-0.02,0
0.057,0.01,-0.05,0.22,-0.01,-0.02,0
0.069,0.01,-0.05,0.22,-0.01,-0.02,0
0.069,0.01,-0.05,0.22,-0.01,-0.01,0
0.069,0.01,-0.11,0.26,-0.01,-0.01,0
0.07,0.01,-0.11,0.26,-0.01,-0.01,0
0.07,0.01,-0.11,0.26,0,0,0
0.07,0.01,-0.11,0.26,0,0,0
0.07,0.01,-0.11,0.26,0,0,0
0.07,0.01,-0.11,0.26,0,0,0
0.071,0.01,-0.11,0.26,0,0.01,0
0.072,0.01,-0.11,0.26,0,0.01,0
0.074,0.01,-0.11,0.26,0.01,0.01,0
0.076,0.01,-0.11,0.26,0.01,0.01,0
0.093,0.01,-0.11,0.26,0.01,0.02,0
0.093,0.01,-0.11,0.26,0.01,0.02,0
0.094,0.01,-0.11,0.26,0.01,0.02,0
0.094,0.01,-0.11,0.26,0.01,0.02,0
0.094,0.01,-0.11,0.26,0.01,0.02,0
0.094,0.01,-0.11,0.26,0.02,0.02,0
0.094,0.01,-0.11,0.26,0.02,0.02,0
0.095,0.01,-0.11,0.26,0.01,0.02,0
0.095,0.05,0,0.21,0.01,0.02,0
0.095,0.05,0,0.21,0.01,0.02,0
0.095,0.05,0,0.21,0.01,0.01,0
0.096,0.05,0,0.21,0.01,0.01,0
0.1,0.05,0,0.21,0.01,0.01,0
0.1,0.03,0.08,0.22,0.01,0.01,0
0.1,0.03,0.08,0.22,0.01,0.01,0
0.102,0.03,0.08,0.22,0.01,0.01,0
0.104,0.03,0.08,0.22,0.01,0,0
0.106,0.03,0.08,0.22,0,0,0
0.109,0.03,0.08,0.22,0,0,0
0.109,0.05,0.07,0.22,0,0,0
0.111,0.05,0.07,0.22,0,0,0
0.112,0.05,0.07,0.22,0,0,0
0.114,0.05,0.07,0.22,0,0,0
0.116,0.05,0.07,0.22,-0.01,-0.01,0
0.132,0.05,0.07,0.22,-0.01,-0.01,0
0.133,0.05,0.07,0.22,0,-0.01,0
0.133,0.05,0.07,0.22,-0.01,-0.01,0
0.133,0.05,0.07,0.22,-0.01,-0.01,0
0.133,0.05,0.07,0.22,-0.01,-0.01,0
0.133,0.05,0.07,0.22,-0.01,-0.01,0
0.134,0.05,0.07,0.22,-0.01,-0.01,0
0.134,0.05,0.07,0.22,-0.01,-0.01,0
0.134,0,0.02,0.25,-0.01,-0.01,0
0.134,0,0.02,0.25,-0.01,-0.01,0
0.135,0,0.02,0.25,-0.01,-0.01,0
0.136,0,0.02,0.25,-0.01,-0.01,0
0.139,0,0.02,0.25,-0.01,-0.01,0
0.14,0.02,-0.02,0.23,-0.01,-0.01,0
0.14,0.02,-0.02,0.23,-0.01,-0.01,0
0.142,0.02,-0.02,0.23,0,-0.01,0
0.144,0.02,-0.02,0.23,0,0,0
0.146,0.02,-0.02,0.23,0,0,0
0.149,0.02,-0.02,0.23,0,0,0
0.149,-0.04,-0.04,0.25,0,0,0
0.15,-0.04,-0.04,0.25,0,0,0
0.152,-0.04,-0.04,0.25,0,0,0
0.154,-0.04,-0.04,0.25,0,0,0
0.156,-0.04,-0.04,0.25,0,0,0
0.172,-0.04,-0.04,0.25,0,0.01,0
0.173,-0.04,-0.04,0.25,0,0.01,0
0.173,-0.04,-0.04,0.25,0,0.01,0
0.173,-0.04,-0.04,0.25,0.01,0.01,0
0.173,-0.04,-0.04,0.25,0.01,0.01,0
0.174,-0.04,-0.04,0.25,0.01,0,0
0.174,-0.04,-0.04,0.25,0,0.01,0
0.174,-0.04,-0.04,0.25,0,0.01,0
0.174,-0.03,-0.07,0.22,0,0.01,0
0.174,-0.03,-0.07,0.22,0,0.01,0
0.175,-0.03,-0.07,0.22,0,0.01,0
0.176,-0.03,-0.07,0.22,0,0.01,0
0.185,-0.03,-0.07,0.22,0,0,0
0.186,-0.04,-0.03,0.22,0,0,0
0.186,-0.04,-0.03,0.22,0,0,0
0.186,-0.04,-0.03,0.22,0,0,0
0.186,-0.04,-0.03,0.22,0,0,0
0.189,-0.04,-0.03,0.22,0,0,0
0.189,-0.04,-0.03,0.22,0,0,0
0.19,0.01,0.07,0.24,0,0,0
0.19,0.01,0.07,0.24,0,0,0
0.192,0.01,0.07,0.24,0,0,0
0.194,0.01,0.07,0.24,0,0,0
0.197,0.01,0.07,0.24,0,0,0
0.212,0.01,0.07,0.24,0,0,0
0.213,0.01,0.07,0.24,0,0,0
0.213,0.01,0.07,0.24,0,0,0
0.213,0.01,0.07,0.24,0,0,0
0.214,0.01,0.07,0.24,0,-0.01,0
0.214,0.01,0.07,0.24,0,0,0
0.214,0.01,0.07,0.24,0,0,0
0.214,0.08,0.02,0.21,0,0,0
0.214,0.08,0.02,0.21,0,0,0
0.215,0.08,0.02,0.21,0,0,0
0.215,0.08,0.02,0.21,0,0,0
0.215,0.08,0.02,0.21,0,-0.01,0
0.216,0.08,0.02,0.21,0,0,0
0.22,0.08,0.02,0.21,-0.01,0,0
0.221,0.08,0.02,0.21,0,-0.01,0
0.221,0.06,0.01,0.24,0,-0.01,0
0.222,0.06,0.01,0.24,0,0,0
0.225,0.06,0.01,0.24,0,0,0
0.226,0.06,0.01,0.24,0,0,0
0.229,0.06,0.01,0.24,0,0,0
0.23,0.06,-0.01,0.26,0,0,0
0.23,0.06,-0.01,0.26,-0.01,-0.01,0
0.232,0.06,-0.01,0.26,0,0,0
0.234,0.06,-0.01,0.26,0,0,0
0.236,0.06,-0.01,0.26,-0.01,0,0
0.252,0.06,-0.01,0.26,0,0,0
0.252,0.06,-0.01,0.26,0,0.01,0
0.252,0.06,-0.01,0.26,0.01,0,0
0.252,0.06,-0.01,0.26,0.01,0,0
0.253,0.06,-0.01,0.26,0.01,0,0
0.253,0.06,-0.01,0.26,0.01,0,0
0.253,0.06,-0.01,0.26,0.01,0,0
0.253,-0.03,-0.08,0.26,0.01,0,0
0.253,-0.02,-0.08,0.26,0.01,0,0
0.254,-0.02,-0.08,0.26,0.01,0.01,0
0.254,-0.02,-0.08,0.26,0,0.01,0
0.256,-0.02,-0.08,0.26,0.01,0.01,0
0.26,-0.02,-0.08,0.26,0.01,0.01,0
0.26,-0.02,-0.08,0.26,0.01,0.01,0
0.26,-0.04,-0.06,0.25,0.01,0.01,0
0.268,-0.04,-0.06,0.25,0.01,0,0
0.269,-0.04,-0.06,0.25,0.01,0.01,0
0.269,-0.04,-0.06,0.25,0,0,0
0.27,-0.04,-0.06,0.25,0.01,0.01,0
0.27,-0.05,-0.02,0.24,0.01,0.01,0
0.27,-0.05,-0.02,0.24,0.01,0.01,0
0.273,-0.05,-0.02,0.24,0,0,0
0.274,-0.05,-0.02,0.24,0.01,0.01,0
0.277,-0.05,-0.02,0.24,0.01,0,0
0.292,-0.05,-0.02,0.24,0,0,0
0.293,-0.05,-0.02,0.24,0,0,0
0.293,-0.05,-0.02,0.24,0,0,0
0.293,-0.05,-0.02,0.24,0,0,0
0.294,-0.05,-0.02,0.24,0,0,0
0.294,-0.05,-0.02,0.24,0,0,0
0.294,-0.05,-0.02,0.24,0,0,0
0.294,-0.01,0.06,0.24,0,0,0
0.294,-0.01,0.06,0.24,0,0,0
0.295,-0.01,0.06,0.24,0,0,0
0.295,-0.01,0.06,0.24,0,0,0
0.297,-0.01,0.06,0.24,0,0,0
0.3,-0.01,0.06,0.24,0,0,0
0.301,-0.01,0.06,0.24,0,-0.01,0
0.301,0.03,0.06,0.21,0,-0.01,0
0.305,0.03,0.06,0.21,0,-0.01,0
0.305,0.03,0.06,0.21,0,-0.01,0
0.306,0.03,0.06,0.21,-0.01,-0.01,0
0.31,0.03,0.06,0.21,-0.01,-0.01,0
0.31,0.07,0.04,0.23,-0.01,-0.01,0
0.311,0.07,0.04,0.23,0,-0.01,0
0.313,0.07,0.04,0.23,-0.01,-0.01,0
0.314,0.07,0.04,0.23,0,-0.01,0
0.316,0.07,0.04,0.23,-0.01,-0.01,0
0.333,0.07,0.04,0.23,-0.01,-0.01,0
0.333,0.07,0.04,0.23,0,0.01,0
0.333,0.07,0.04,0.23,0,0.01,0
0.333,0.07,0.04,0.23,0,0.01,0
0.336,0.07,0.04,0.23,0.01,0.02,0
0.336,0.07,0.04,0.23,0.01,0.02,0
0.336,0.07,0.04,0.23,0.01,0.02,0
0.336,0.07,0.04,0.23,0.02,0.04,0
0.337,0.07,-0.07,0.35,0.02,0.04,0
0.337,0.07,-0.07,0.35,0.02,0.04,0
0.337,0.07,-0.07,0.35,0.02,0.05,0
0.337,0.07,-0.07,0.35,0.03,0.07,0
0.34,0.07,-0.07,0.35,0.05,0.09,0
0.34,0.08,-0.19,0.53,0.05,0.09,0
0.34,0.08,-0.19,0.53,0.06,0.11,-0.01
0.342,0.08,-0.19,0.53,0.07,0.09,-0.01
0.344,0.08,-0.19,0.53,0.03,0,-0.01
0.346,0.08,-0.19,0.53,-0.04,-0.1,-0.01
0.349,0.08,-0.19,0.53,-0.08,-0.16,-0.02
0.349,-0.11,0.06,-1.66,-0.08,-0.16,-0.02
0.352,-0.11,0.06,-1.66,-0.15,-0.27,-0.06
0.353,-0.11,0.06,-1.66,-0.19,-0.37,-0.18
0.354,-0.11,0.06,-1.66,-0.21,-0.4,-0.31
0.356,-0.11,0.06,-1.66,-0.22,-0.39,-0.36
0.372,-0.11,0.06,-1.66,-0.21,-0.33,-0.45
0.372,-0.11,0.06,-1.66,-0.02,0.02,-0.64
0.372,-0.11,0.06,-1.66,-0.02,0.02,-0.64
0.372,-0.11,0.06,-1.66,-0.01,0.03,-0.64
0.372,-0.11,0.06,-1.66,-0.01,0.03,-0.64
0.373,-0.11,0.06,-1.66,0,0.04,-0.64
0.373,-0.11,0.06,-1.66,0,0.04,-0.64
0.373,-1.01,-0.84,0.81,0,0.04,-0.64
0.373,-1.04,-0.82,0.81,0,0.04,-0.64
0.374,-1.04,-0.82,0.81,0,0.04,-0.64
0.374,-1.04,-0.82,0.81,0,0.04,-0.63
0.374,-1.04,-0.82,0.81,-0.01,0.02,-0.62
0.376,-1.04,-0.82,0.81,-0.04,-0.02,-0.59
0.385,-1.04,-0.82,0.81,-0.07,-0.05,-0.57
0.386,-2.07,-1.35,-0.55,-0.07,-0.05,-0.57
0.386,-2.07,-1.35,-0.55,-0.12,-0.09,-0.52
0.387,-2.07,-1.35,-0.55,-0.2,-0.11,-0.47
0.387,-2.07,-1.35,-0.55,-0.24,-0.1,-0.44
0.387,-2.07,-1.35,-0.55,-0.32,-0.02,-0.37
0.389,-2.07,-1.35,-0.55,-0.31,0.19,-0.38
0.39,-0.85,-0.5,0.88,-0.31,0.19,-0.38
0.39,-0.85,-0.5,0.88,-0.39,0.27,-0.35
0.392,-0.85,-0.5,0.88,-0.46,0.26,-0.33
0.395,-0.85,-0.5,0.88,-0.51,0.34,-0.31
0.397,-0.85,-0.5,0.88,-0.53,0.39,-0.28
0.412,-0.85,-0.5,0.88,-0.43,0.13,-0.26
0.413,-0.85,-0.5,0.88,-0.33,0.1,-0.13
0.413,-0.85,-0.5,0.88,-0.33,0.1,-0.13
0.413,-0.85,-0.5,0.88,-0.33,0.1,-0.13
0.413,-0.85,-0.5,0.88,-0.33,0.12,-0.12
0.413,-0.85,-0.5,0.88,-0.31,0.13,-0.11
0.413,-0.85,-0.5,0.88,-0.31,0.13,-0.11
0.414,0.43,1.16,0.28,-0.31,0.13,-0.11
0.414,0.46,1.23,0.28,-0.31,0.13,-0.11
0.414,0.47,1.26,0.28,-0.31,0.13,-0.11
0.416,0.47,1.26,0.28,-0.3,0.13,-0.1
0.417,0.47,1.26,0.28,-0.3,0.15,-0.09
0.417,0.47,1.26,0.28,-0.32,0.17,-0.07
0.42,0.47,1.26,0.28,-0.32,0.19,-0.06
0.42,0.3,1.31,0.45,-0.32,0.19,-0.06
0.42,0.3,1.31,0.45,-0.35,0.24,-0.03
0.422,0.3,1.31,0.45,-0.35,0.26,-0.01
0.425,0.3,1.31,0.45,-0.38,0.31,0.02
0.426,0.3,1.31,0.45,-0.39,0.36,0.06
0.429,0.3,1.31,0.45,-0.4,0.37,0.08
0.429,-0.12,0.83,0.63,-0.4,0.37,0.08
0.43,-0.12,0.83,0.63,-0.43,0.38,0.12
0.432,-0.12,0.83,0.63,-0.46,0.35,0.17
0.434,-0.12,0.83,0.63,-0.52,0.23,0.22
0.437,-0.12,0.83,0.63,-0.55,0.15,0.25
0.451,-0.12,0.83,0.63,-0.63,-0.06,0.3
0.451,-0.12,0.83,0.63,-0.95,-1.11,0.49
0.452,-0.12,0.83,0.63,-0.95,-1.11,0.49
0.452,-0.12,0.83,0.63,-1,-1.21,0.51
0.452,-0.12,0.83,0.63,-1,-1.21,0.51
0.452,-0.12,0.83,0.63,-1.04,-1.31,0.53
0.452,-0.12,0.83,0.63,-1.04,-1.31,0.53
0.453,1.06,0.7,0.07,-1.04,-1.31,0.53
0.453,0.94,0.84,0.08,-1.04,-1.31,0.53
0.453,0.94,0.84,0.08,-0.78,-0.71,0.44
0.454,0.94,0.84,0.08,-0.68,-0.51,0.34
0.456,0.94,0.84,0.08,-0.84,-0.88,0.33
0.46,0.94,0.84,0.08,-0.79,-0.79,0.32
0.46,2.23,-0.97,3.8,-0.79,-0.79,0.32
0.465,2.23,-0.97,3.8,-0.65,-0.79,0.26
0.465,2.23,-0.97,3.8,-0.65,-1.1,0.29
0.465,2.23,-0.97,3.8,-0.54,-1.26,0.34
0.467,2.23,-0.97,3.8,-0.5,-1.37,0.36
0.471,2.23,-0.97,3.8,-0.44,-1.64,0.4
0.471,2.23,-0.97,3.8,-0.36,-1.86,0.44
0.471,-0.03,-0.44,3.72,-0.36,-1.86,0.44
0.473,-0.03,-0.44,3.72,-0.34,-1.99,0.47
0.476,-0.03,-0.44,3.72,-0.3,-2.24,0.51
0.476,-0.03,-0.44,3.72,-0.3,-2.49,0.55
0.492,-0.03,-0.44,3.72,-0.28,-2.75,0.59
0.493,-0.03,-0.44,3.72,-0.32,-3.87,0.98
0.493,-0.03,-0.44,3.72,-0.32,-4.02,1.04
0.493,-0.03,-0.44,3.72,-0.33,-4.18,1.11
0.493,-0.03,-0.44,3.72,-0.33,-4.18,1.11
0.494,-0.03,-0.44,3.72,-0.33,-4.18,1.11
0.494,-0.03,-0.44,3.72,-0.33,-4.18,1.11
0.494,1.57,-0.99,5.05,-0.33,-4.18,1.11
0.494,1.3,-0.96,5.08,-0.33,-4.18,1.11
0.494,0.93,-0.92,5.12,-0.33,-4.18,1.11
0.495,0.93,-0.92,5.12,-0.31,-4.49,1.24
0.495,0.93,-0.92,5.12,-0.32,-4.66,1.31
0.496,0.93,-0.92,5.12,-0.29,-5.02,1.45
0.501,0.93,-0.92,5.12,-0.24,-5.56,1.7
0.501,0.47,1.17,9.4,-0.24,-5.56,1.7
0.502,0.47,1.17,9.4,-0.19,-6.15,1.99
0.503,0.47,1.17,9.4,-0.16,-6.46,2.14
0.504,0.47,1.17,9.4,-0.09,-7.07,2.44
0.506,0.47,1.17,9.4,-0.01,-7.65,2.73
0.509,0.47,1.17,9.4,0.05,-8.12,3.03
0.51,7.79,1.97,6.37,0.05,-8.12,3.03
0.51,7.79,1.97,6.37,0.07,-8.28,3.19
0.513,7.79,1.97,6.37,0.1,-8.41,3.48
0.514,7.79,1.97,6.37,0.1,-8.39,3.67
0.516,7.79,1.97,6.37,0.13,-8.22,3.64
0.532,7.79,1.97,6.37,0.19,-7.59,3.28
0.532,7.79,1.97,6.37,0.24,-1.07,-3.02
0.532,7.79,1.97,6.37,0.24,-1.07,-3.02
0.533,7.79,1.97,6.37,0.16,-0.08,-4.11
0.533,7.79,1.97,6.37,0.16,-0.08,-4.11
0.533,7.79,1.97,6.37,0.16,-0.08,-4.11
0.533,7.79,1.97,6.37,0.01,0.73,-4.93
0.533,2.54,-8.19,-1.54,0.01,0.73,-4.93
0.534,1.83,-8.26,-1.3,0.01,0.73,-4.93
0.534,1.83,-8.26,-1.3,-0.24,2.17,-5.6
0.534,1.83,-8.26,-1.3,-0.31,3.53,-5.37
0.537,1.83,-8.26,-1.3,-0.25,4.6,-4.75
0.54,1.83,-8.26,-1.3,-0.19,5,-4.39
0.54,-1.74,-4.06,-1.67,-0.19,5,-4.39
0.54,-1.74,-4.06,-1.67,-0.05,5.53,-3.67
0.542,-1.74,-4.06,-1.67,0.1,5.67,-3.02
0.545,-1.74,-4.06,-1.67,0.23,5.37,-2.51
0.546,-1.74,-4.06,-1.67,0.28,5.1,-2.33
0.549,-1.74,-4.06,-1.67,0.37,4.46,-2.11
0.55,-11.19,-3.68,3.22,0.37,4.46,-2.11
0.55,-11.19,-3.68,3.22,0.45,3.88,-2.02
0.552,-11.19,-3.68,3.22,0.52,3.47,-1.97
0.554,-11.19,-3.68,3.22,0.55,3.33,-1.94
0.556,-11.19,-3.68,3.22,0.62,3.13,-1.85
0.583,-11.19,-3.68,3.22,0.72,2.99,-1.74
0.584,-11.19,-3.68,3.22,1.32,2.69,-1.16
0.585,-11.19,-3.68,3.22,1.32,2.69,-1.16
0.585,-11.19,-3.68,3.22,1.32,2.69,-1.16
0.586,-11.19,-3.68,3.22,1.42,2.75,-1.09
0.586,-11.19,-3.68,3.22,1.5,2.84,-1.03
0.586,-11.19,-3.68,3.22,1.5,2.84,-1.03
0.587,-11.19,-3.68,3.22,1.66,3.08,-0.96
0.587,-11.19,-3.68,3.22,1.79,3.37,-0.96
0.587,-11.19,-3.68,3.22,1.85,3.52,-1
0.588,-4.54,-3.39,6.27,1.85,3.52,-1
0.588,-4.01,-3.66,6.12,1.85,3.52,-1
0.588,-3.74,-3.82,6.06,1.85,3.52,-1
0.588,-3.74,-3.82,6.06,1.94,3.78,-1.11
0.589,2.78,-3.94,5.78,1.94,3.78,-1.11
0.589,2.78,-3.94,5.78,2.02,3.97,-1.28
0.589,2.78,-3.94,5.78,2.06,4.04,-1.38
0.589,2.78,-3.94,5.78,2.13,4.14,-1.57
0.59,2.78,-3.94,5.78,2.17,4.2,-1.76
0.59,2.78,-3.94,5.78,2.21,4.25,-1.95
0.591,2.78,-3.94,5.78,2.22,4.29,-2.04
0.591,3.73,-1.55,5.91,2.22,4.29,-2.04
0.592,3.73,-1.55,5.91,2.26,4.39,-2.19
0.595,3.73,-1.55,5.91,2.31,4.54,-2.34
0.598,3.73,-1.55,5.91,2.37,4.74,-2.49
0.612,3.73,-1.55,5.91,2.41,4.86,-2.56
0.612,3.73,-1.55,5.91,2.9,5.81,-3.16
0.613,3.73,-1.55,5.91,2.95,5.86,-3.23
0.613,3.73,-1.55,5.91,3,5.9,-3.31
0.613,3.73,-1.55,5.91,3,5.9,-3.31
0.613,3.73,-1.55,5.91,3,5.9,-3.31
0.614,3.73,-1.55,5.91,3,5.9,-3.31
0.614,3.84,-0.71,6.16,3,5.9,-3.31
0.614,4.92,-1.26,6.12,3,5.9,-3.31
0.614,4.92,-1.26,6.12,3.05,5.93,-3.38
0.615,4.92,-1.26,6.12,3.15,5.95,-3.54
0.617,4.92,-1.26,6.12,3.25,5.94,-3.68
0.62,4.92,-1.26,6.12,3.33,5.86,-3.82
0.621,4.92,-1.26,6.12,3.36,5.76,-3.88
0.621,5.52,-2.29,5.01,3.36,5.76,-3.88
0.622,5.52,-2.29,5.01,3.42,5.6,-4.01
0.624,5.52,-2.29,5.01,3.47,5.5,-4.13
0.627,5.52,-2.29,5.01,3.49,5.47,-4.18
0.63,5.52,-2.29,5.01,3.54,5.42,-4.29
0.631,5.52,-2.29,5.01,3.58,5.38,-4.37
0.631,5.13,-3.75,2.95,3.58,5.38,-4.37
0.633,5.13,-3.75,2.95,3.62,5.36,-4.43
0.635,5.13,-3.75,2.95,3.64,5.36,-4.45
0.637,5.13,-3.75,2.95,3.67,5.39,-4.43
0.652,5.13,-3.75,2.95,3.69,5.45,-4.37
0.653,5.13,-3.75,2.95,3.84,6.06,-3.71
0.653,5.13,-3.75,2.95,3.84,6.06,-3.71
0.653,5.13,-3.75,2.95,3.84,6.06,-3.71
0.653,5.13,-3.75,2.95,3.84,6.06,-3.71
0.654,5.13,-3.75,2.95,3.86,6.13,-3.61
0.654,5.13,-3.75,2.95,3.88,6.22,-3.51
0.654,-2.32,-5.1,-0.46,3.88,6.22,-3.51
0.654,-1.08,-5.62,-0.03,3.88,6.22,-3.51
0.655,-1.08,-5.62,-0.03,3.91,6.39,-3.3
0.655,-1.08,-5.62,-0.03,3.92,6.51,-3.11
0.656,-1.08,-5.62,-0.03,3.92,6.56,-3.01
0.66,-1.08,-5.62,-0.03,3.91,6.62,-2.83
0.66,-2.15,-4.59,-2.45,3.91,6.62,-2.83
0.661,-2.15,-4.59,-2.45,3.88,6.62,-2.67
0.666,-2.15,-4.59,-2.45,3.81,6.58,-2.52
0.666,-2.15,-4.59,-2.45,3.77,6.55,-2.45
0.667,-2.15,-4.59,-2.45,3.67,6.46,-2.32
0.673,-2.15,-4.59,-2.45,3.54,6.35,-2.21
0.673,-0.86,-4.09,-5.2,3.54,6.35,-2.21
0.673,-0.86,-4.09,-5.2,3.47,6.28,-2.15
0.674,-0.86,-4.09,-5.2,3.33,6.17,-2.06
0.675,-0.86,-4.09,-5.2,3.17,6.04,-1.97
0.676,-0.86,-4.09,-5.2,3,5.94,-1.88
0.693,-0.86,-4.09,-5.2,2.91,5.88,-1.84
0.693,-0.86,-4.09,-5.2,2.2,5.53,-1.57
0.693,-0.86,-4.09,-5.2,2.11,5.51,-1.54
0.694,-0.86,-4.09,-5.2,2.11,5.51,-1.54
0.694,-0.86,-4.09,-5.2,2.11,5.51,-1.54
0.694,-0.86,-4.09,-5.2,2.03,5.5,-1.51
0.694,-0.86,-4.09,-5.2,1.94,5.49,-1.48
0.694,-0.86,-4.09,-5.2,1.87,5.5,-1.45
0.695,-0.77,-2.51,-6.28,1.87,5.5,-1.45
0.695,0.21,-2.71,-5.52,1.87,5.5,-1.45
0.696,0.21,-2.71,-5.52,1.71,5.54,-1.41
0.698,0.21,-2.71,-5.52,1.57,5.61,-1.37
0.7,0.21,-2.71,-5.52,1.45,5.69,-1.33
0.701,-0.24,-1.09,-4.26,1.45,5.69,-1.33
0.701,-0.24,-1.09,-4.26,1.4,5.74,-1.31
0.702,-0.24,-1.09,-4.26,1.3,5.81,-1.26
0.705,-0.24,-1.09,-4.26,1.23,5.86,-1.21
0.707,-0.24,-1.09,-4.26,1.18,5.82,-1.16
0.71,-0.24,-1.09,-4.26,1.17,5.76,-1.15
0.711,-0.72,-0.1,-1.22,1.17,5.76,-1.15
0.713,-0.72,-0.1,-1.22,1.15,5.61,-1.12
0.713,-0.72,-0.1,-1.22,1.16,5.42,-1.11
0.715,-0.72,-0.1,-1.22,1.17,5.32,-1.1
0.718,-0.72,-0.1,-1.22,1.19,5.08,-1.09
0.735,-0.72,-0.1,-1.22,1.22,4.83,-1.09
0.736,-0.72,-0.1,-1.22,1.36,3.55,-1.16
0.736,-0.72,-0.1,-1.22,1.36,3.55,-1.16
0.737,-0.72,-0.1,-1.22,1.39,3.42,-1.18
0.737,-0.72,-0.1,-1.22,1.39,3.42,-1.18
0.737,-0.72,-0.1,-1.22,1.41,3.28,-1.19
0.738,-0.72,-0.1,-1.22,1.41,3.28,-1.19
0.738,-0.72,-0.1,-1.22,1.43,3.15,-1.22
0.738,0.42,-0.18,1.1,1.43,3.15,-1.22
0.739,0.75,-0.18,1.46,1.43,3.15,-1.22
0.739,1,-0.18,1.76,1.43,3.15,-1.22
0.739,1,-0.18,1.76,1.48,2.88,-1.26
0.739,1,-0.18,1.76,1.5,2.75,-1.28
0.741,1,-0.18,1.76,1.55,2.48,-1.32
0.741,2.03,0.03,0.43,1.55,2.48,-1.32
0.742,2.03,0.03,0.43,1.6,2.19,-1.34
0.742,2.03,0.03,0.43,1.62,1.89,-1.36
0.744,2.03,0.03,0.43,1.64,1.73,-1.36
0.748,2.03,0.03,0.43,1.66,1.41,-1.34
0.75,2.03,0.03,0.43,1.69,1.05,-1.31
0.75,2.03,0.03,0.43,1.7,0.69,-1.27
0.75,2.87,-0.1,-1,1.7,0.69,-1.27
0.753,2.87,-0.1,-1,1.7,0.52,-1.25
0.755,2.87,-0.1,-1,1.69,0.2,-1.23
0.757,2.87,-0.1,-1,1.67,-0.12,-1.21
0.769,2.87,-0.1,-1,1.66,-0.29,-1.19
0.769,2.87,-0.1,-1,1.47,-1.66,-1.07
0.77,2.87,-0.1,-1,1.44,-1.82,-1.07
0.77,2.87,-0.1,-1,1.44,-1.82,-1.07
0.77,2.87,-0.1,-1,1.44,-1.82,-1.07
0.77,2.87,-0.1,-1,1.44,-1.82,-1.07
0.77,6.65,-2.8,-3.95,1.44,-1.82,-1.07
0.77,6.67,-2.8,-3.91,1.44,-1.82,-1.07
0.771,6.67,-2.8,-3.91,1.34,-2.17,-1.08
0.773,6.67,-2.8,-3.91,1.24,-2.55,-1.1
0.774,6.67,-2.8,-3.91,1.18,-2.74,-1.12
0.776,6.67,-2.8,-3.91,1.07,-3.14,-1.17
0.783,6.67,-2.8,-3.91,0.94,-3.5,-1.25
0.783,6.67,-2.8,-3.91,0.88,-3.66,-1.31
0.784,6.67,-1.76,-3.72,0.88,-3.66,-1.31
0.784,6.67,-1.76,-3.72,0.77,-3.96,-1.39
0.789,6.67,-1.76,-3.72,0.67,-4.23,-1.45
0.789,6.67,-1.76,-3.72,0.58,-4.46,-1.48
0.79,6.67,-1.76,-3.72,0.54,-4.57,-1.5
0.79,5.56,-1.93,-3.77,0.54,-4.57,-1.5
0.79,5.56,-1.93,-3.77,0.48,-4.76,-1.51
0.792,5.56,-1.93,-3.77,0.43,-4.96,-1.51
0.799,5.56,-1.93,-3.77,0.4,-5.17,-1.5
0.799,5.56,-1.93,-3.77,0.38,-5.28,-1.49
0.813,5.56,-1.93,-3.77,0.37,-5.53,-1.47
0.814,5.56,-1.93,-3.77,0.29,-6.69,-1.44
0.814,5.56,-1.93,-3.77,0.29,-6.69,-1.44
0.814,5.56,-1.93,-3.77,0.29,-6.85,-1.44
0.814,5.56,-1.93,-3.77,0.29,-7.01,-1.44
0.815,5.56,-1.93,-3.77,0.29,-7.01,-1.44
0.815,5.56,-1.93,-3.77,0.29,-7.17,-1.44
0.815,5.56,-1.93,-3.77,0.3,-7.34,-1.43
0.815,0.53,-0.09,1.3,0.3,-7.34,-1.43
0.815,-0.17,0.06,0.49,0.3,-7.34,-1.43
0.816,-0.6,0.13,0.08,0.3,-7.34,-1.43
0.817,-0.6,0.13,0.08,0.34,-7.67,-1.41
0.818,-0.6,0.13,0.08,0.38,-8.01,-1.38
0.82,-0.6,0.13,0.08,0.41,-8.17,-1.36
0.82,-1.65,0.91,2.55,0.41,-8.17,-1.36
0.821,-1.65,0.91,2.55,0.48,-8.47,-1.34
0.823,-1.65,0.91,2.55,0.55,-8.73,-1.32
0.825,-1.65,0.91,2.55,0.59,-8.84,-1.31
0.826,-1.65,0.91,2.55,0.66,-9.01,-1.3
0.829,-1.65,0.91,2.55,0.75,-9.1,-1.32
0.83,-0.55,1.43,2.36,0.75,-9.1,-1.32
0.83,-0.55,1.43,2.36,0.78,-8.94,-1.41
0.833,-0.55,1.43,2.36,0.76,-8.73,-1.5
0.835,-0.55,1.43,2.36,0.67,-7.94,-1.72
0.836,-0.55,1.43,2.36,0.59,-7.08,-1.95
0.852,-0.55,1.43,2.36,0.6,-6.53,-2.13
0.853,-0.55,1.43,2.36,0.84,-5.48,-2.5
0.857,-0.55,1.43,2.36,0.85,-5.3,-2.55
0.858,-0.55,1.43,2.36,0.85,-5.09,-2.59
0.858,-0.55,1.43,2.36,0.85,-5.09,-2.59
0.858,-0.55,1.43,2.36,0.85,-5.09,-2.59
0.858,-0.55,1.43,2.36,0.85,-5.09,-2.59
0.859,2.5,0.34,-1.38,0.85,-5.09,-2.59
0.859,1.63,0.42,-1.85,0.85,-5.09,-2.59
0.859,1.63,0.42,-1.85,0.83,-4.63,-2.68
0.859,1.63,0.42,-1.85,0.82,-4.39,-2.73
0.86,1.63,0.42,-1.85,0.79,-3.93,-2.82
0.86,1.63,0.42,-1.85,0.76,-3.52,-2.9
0.861,1.63,0.42,-1.85,0.75,-3.16,-2.97
0.861,2.28,0.4,-3.37,0.75,-3.16,-2.97
0.865,2.28,0.4,-3.37,0.75,-3,-3
0.865,2.28,0.4,-3.37,0.75,-2.74,-3.04
0.871,2.28,0.4,-3.37,0.77,-2.55,-3.06
0.872,2.28,0.4,-3.37,0.79,-2.48,-3.07
0.872,1.98,1.31,-1.12,0.79,-2.48,-3.07
0.872,1.98,1.31,-1.12,0.84,-2.41,-3.06
0.872,1.98,1.31,-1.12,0.91,-2.43,-3.05
0.874,1.98,1.31,-1.12,1.01,-2.55,-3.01
0.877,1.98,1.31,-1.12,1.06,-2.64,-2.98
0.891,1.98,1.31,-1.12,1.18,-2.85,-2.9
0.892,1.98,1.31,-1.12,1.66,-3.71,-2.44
0.892,1.98,1.31,-1.12,1.66,-3.71,-2.44
0.892,1.98,1.31,-1.12,1.66,-3.71,-2.44
0.893,1.98,1.31,-1.12,1.7,-3.77,-2.38
0.893,1.98,1.31,-1.12,1.7,-3.77,-2.38
0.893,1.98,1.31,-1.12,1.71,-3.79,-2.33
0.893,-2.07,1.62,2.78,1.71,-3.79,-2.33
0.894,-2.24,1.6,2.73,1.71,-3.79,-2.33
0.894,-2.24,1.6,2.73,1.67,-3.67,-2.23
0.894,-2.24,1.6,2.73,1.52,-3.37,-2.18
0.896,-2.24,1.6,2.73,1.38,-3.09,-2.15
0.9,-2.24,1.6,2.73,1.32,-3.01,-2.14
0.901,-2.78,-0.87,-0.46,1.32,-3.01,-2.14
0.901,-2.78,-0.87,-0.46,1.25,-2.94,-2.1
0.903,-2.78,-0.87,-0.46,1.2,-2.92,-2.04
0.904,-2.78,-0.87,-0.46,1.19,-2.97,-1.97
0.906,-2.78,-0.87,-0.46,1.18,-2.99,-1.93
0.91,-2.78,-0.87,-0.46,1.15,-2.98,-1.86
0.91,-4.74,-1.87,-0.07,1.15,-2.98,-1.86
0.911,-4.74,-1.87,-0.07,1.09,-2.88,-1.79
0.912,-4.74,-1.87,-0.07,1.05,-2.82,-1.76
0.916,-4.74,-1.87,-0.07,0.96,-2.69,-1.7
0.916,-4.74,-1.87,-0.07,0.89,-2.6,-1.65
0.931,-4.74,-1.87,-0.07,0.82,-2.56,-1.6
0.932,-4.74,-1.87,-0.07,0.73,-2.49,-1.4
0.932,-4.74,-1.87,-0.07,0.73,-2.49,-1.4
0.932,-4.74,-1.87,-0.07,0.73,-2.49,-1.4
0.932,-4.74,-1.87,-0.07,0.73,-2.49,-1.38
0.933,-4.74,-1.87,-0.07,0.74,-2.49,-1.35
0.933,-4.74,-1.87,-0.07,0.74,-2.49,-1.35
0.933,-5.06,-0.32,-0.56,0.74,-2.49,-1.35
0.933,-5.43,-0.4,-0.62,0.74,-2.49,-1.35
0.933,-5.61,-0.45,-0.64,0.74,-2.49,-1.35
0.934,-5.61,-0.45,-0.64,0.75,-2.51,-1.3
0.934,-5.61,-0.45,-0.64,0.77,-2.52,-1.27
0.936,-5.61,-0.45,-0.64,0.8,-2.57,-1.22
0.94,-5.61,-0.45,-0.64,0.84,-2.63,-1.16
0.94,-6.19,0.33,0.5,0.84,-2.63,-1.16
0.941,-6.19,0.33,0.5,0.88,-2.71,-1.1
0.943,-6.19,0.33,0.5,0.9,-2.75,-1.07
0.946,-6.19,0.33,0.5,0.95,-2.82,-1.01
0.948,-6.19,0.33,0.5,1,-2.9,-0.94
0.952,-6.19,0.33,0.5,1.06,-2.97,-0.87
0.952,-6.19,0.33,0.5,1.1,-3.01,-0.83
0.952,-6.91,0.86,1.76,1.1,-3.01,-0.83
0.953,-6.91,0.86,1.76,1.17,-3.07,-0.75
0.954,-6.91,0.86,1.76,1.25,-3.13,-0.66
0.956,-6.91,0.86,1.76,1.29,-3.16,-0.61
0.974,-6.91,0.86,1.76,1.36,-3.18,-0.52
0.974,-6.91,0.86,1.76,1.58,-2.94,-0.13
0.975,-6.91,0.86,1.76,1.59,-2.91,-0.09
0.975,-6.91,0.86,1.76,1.6,-2.87,-0.05
0.975,-6.91,0.86,1.76,1.6,-2.87,-0.05
0.975,-6.91,0.86,1.76,1.6,-2.87,-0.05
0.976,-6.91,0.86,1.76,1.6,-2.87,-0.05
0.976,-6.91,0.86,1.76,1.61,-2.85,-0.01
0.976,-3.75,0.46,2.74,1.61,-2.85,-0.01
0.976,-4.03,0.34,2.75,1.61,-2.85,-0.01
0.977,-4.29,0.19,2.78,1.61,-2.85,-0.01
0.977,-4.29,0.19,2.78,1.65,-2.81,0.08
0.977,-4.29,0.19,2.78,1.68,-2.79,0.18
0.99,-4.29,0.19,2.78,1.7,-2.78,0.23
0.991,-4.29,0.19,2.78,1.74,-2.77,0.35
0.992,-2.48,-0.46,1.93,1.74,-2.77,0.35
0.992,-2.48,-0.46,1.93,1.78,-2.77,0.47
0.996,-2.48,-0.46,1.93,1.83,-2.76,0.59
0.996,-2.48,-0.46,1.93,1.85,-2.76,0.65
0.996,-2.48,-0.46,1.93,1.88,-2.76,0.78
0.997,-2.48,-0.46,1.93,1.91,-2.75,0.91
0.997,-1.28,0.04,0.11,1.91,-2.75,0.91
0.997,-1.28,0.04,0.11,1.94,-2.74,1.03
1,-1.28,0.04,0.11,1.96,-2.74,1.09
1,-1.28,0.04,0.11,1.99,-2.76,1.2
1.011,-1.28,0.04,0.11,2.02,-2.79,1.3
1.011,-1.28,0.04,0.11,2.09,-3.12,1.47
1.012,-1.28,0.04,0.11,2.09,-3.12,1.47
1.012,-1.28,0.04,0.11,2.09,-3.12,1.47
1.015,-1.28,0.04,0.11,2.09,-3.12,1.47
1.015,-1.28,0.04,0.11,2.08,-3.15,1.47
1.015,-1.28,0.04,0.11,2.07,-3.19,1.46
1.016,2.25,0.78,-1.1,2.07,-3.19,1.46
1.016,1.61,0.41,-0.92,2.07,-3.19,1.46
1.016,1.61,0.41,-0.92,2.06,-3.26,1.44
1.016,1.61,0.41,-0.92,2.05,-3.31,1.4
1.017,1.61,0.41,-0.92,2.03,-3.34,1.38
1.02,1.61,0.41,-0.92,1.97,-3.35,1.32
1.02,1.66,-0.49,-1.19,1.97,-3.35,1.32
1.021,1.66,-0.49,-1.19,1.9,-3.36,1.25
1.023,1.66,-0.49,-1.19,1.85,-3.36,1.2
1.025,1.66,-0.49,-1.19,1.76,-3.37,1.12
1.026,1.66,-0.49,-1.19,1.68,-3.41,1.03
1.033,1.66,-0.49,-1.19,1.61,-3.45,0.96
1.033,0.51,-0.51,-1.05,1.61,-3.45,0.96
1.034,0.51,-0.51,-1.05,1.58,-3.46,0.92
1.034,0.51,-0.51,-1.05,1.54,-3.5,0.85
1.035,0.51,-0.51,-1.05,1.5,-3.5,0.78
1.036,0.51,-0.51,-1.05,1.48,-3.47,0.73
1.051,0.51,-0.51,-1.05,1.47,-3.44,0.71
1.052,0.51,-0.51,-1.05,1.5,-2.93,0.61
1.052,0.51,-0.51,-1.05,1.51,-2.83,0.61
1.052,0.51,-0.51,-1.05,1.51,-2.83,0.61
1.052,0.51,-0.51,-1.05,1.53,-2.72,0.6
1.052,0.51,-0.51,-1.05,1.53,-2.72,0.6
1.052,0.51,-0.51,-1.05,1.55,-2.62,0.61
1.053,-1.23,0.63,0.26,1.55,-2.62,0.61
1.053,-1.82,0.41,0.52,1.55,-2.62,0.61
1.053,-2.07,0.29,0.66,1.55,-2.62,0.61
1.054,-2.07,0.29,0.66,1.57,-2.5,0.61
1.055,-2.07,0.29,0.66,1.61,-2.27,0.62
1.056,-2.07,0.29,0.66,1.65,-2.03,0.64
1.059,-2.07,0.29,0.66,1.7,-1.79,0.66
1.06,-1.86,0.26,0.57,1.7,-1.79,0.66
1.06,-1.86,0.26,0.57,1.73,-1.67,0.67
1.063,-1.86,0.26,0.57,1.78,-1.43,0.69
1.064,-1.86,0.26,0.57,1.83,-1.2,0.71
1.068,-1.86,0.26,0.57,1.85,-1.09,0.72
1.07,-2.03,0.14,0.7,1.85,-1.09,0.72
1.07,-2.03,0.14,0.7,1.89,-0.88,0.73
1.07,-2.03,0.14,0.7,1.92,-0.69,0.74
1.072,-2.03,0.14,0.7,1.94,-0.52,0.75
1.075,-2.03,0.14,0.7,1.95,-0.45,0.74
1.077,-2.03,0.14,0.7,1.95,-0.32,0.73
1.094,-2.03,0.14,0.7,1.95,-0.21,0.72
1.095,-2.03,0.14,0.7,1.88,0.16,0.63
1.095,-2.03,0.14,0.7,1.87,0.2,0.62
1.096,-2.03,0.14,0.7,1.87,0.2,0.62
1.096,-2.03,0.14,0.7,1.86,0.24,0.61
1.097,-2.03,0.14,0.7,1.86,0.24,0.61
1.097,-2.03,0.14,0.7,1.86,0.24,0.61
1.099,-2.03,0.14,0.7,1.85,0.27,0.61
1.1,-1.57,-0.4,-1.3,1.85,0.27,0.61
1.1,-1.63,-0.53,-1.19,1.85,0.27,0.61
1.101,-1.65,-0.65,-1.09,1.85,0.27,0.61
1.102,-1.65,-0.65,-1.09,1.83,0.33,0.6
1.102,-1.65,-0.65,-1.09,1.82,0.35,0.6
1.103,-1.65,-0.65,-1.09,1.81,0.4,0.61
1.103,-1.65,-0.65,-1.09,1.81,0.45,0.64
1.103,-2.41,-0.44,-1.03,1.81,0.45,0.64
1.103,-2.41,-0.44,-1.03,1.8,0.51,0.68
1.109,-2.41,-0.44,-1.03,1.8,0.55,0.71
1.116,-2.41,-0.44,-1.03,1.78,0.62,0.78
1.117,-2.41,-0.44,-1.03,1.77,0.7,0.86
1.117,-3.8,-0.28,-1.05,1.77,0.7,0.86
1.118,-3.8,-0.28,-1.05,1.76,0.74,0.91
1.118,-3.8,-0.28,-1.05,1.75,0.8,1.01
1.118,-3.8,-0.28,-1.05,1.74,0.83,1.1
1.118,-3.8,-0.28,-1.05,1.75,0.83,1.19
1.129,-3.8,-0.28,-1.05,1.76,0.81,1.24
1.13,-3.8,-0.28,-1.05,1.93,0.6,1.49
1.13,-3.8,-0.28,-1.05,1.93,0.6,1.49
1.131,-3.8,-0.28,-1.05,1.96,0.58,1.51
1.131,-3.8,-0.28,-1.05,1.96,0.58,1.51
1.131,-2.61,-1.32,0.57,1.96,0.58,1.51
1.136,-2.61,-1.32,0.57,1.96,0.58,1.51
1.137,-2.61,-1.32,0.57,2.01,0.5,1.54
1.137,-2.61,-1.32,0.57,2.04,0.46,1.55
1.137,-2.61,-1.32,0.57,2.1,0.38,1.56
1.137,-2.18,-1.49,0.75,2.1,0.38,1.56
1.137,-2.18,-1.49,0.75,2.15,0.29,1.56
1.14,-2.18,-1.49,0.75,2.21,0.2,1.54
1.14,0.01,-1.36,0.49,2.21,0.2,1.54
1.14,0.01,-1.36,0.49,2.24,0.17,1.51
1.143,0.01,-1.36,0.49,2.29,0.11,1.46
1.145,0.01,-1.36,0.49,2.34,0.06,1.39
1.147,0.01,-1.36,0.49,2.39,0.04,1.3
1.15,-0.06,-1.48,0.61,2.39,0.04,1.3
1.151,-0.06,-1.48,0.61,2.41,0.04,1.25
1.151,-0.06,-1.48,0.61,2.45,0.06,1.14
1.152,-0.06,-1.48,0.61,2.5,0.09,1.04
1.155,-0.06,-1.48,0.61,2.51,0.11,0.99
1.157,-0.06,-1.48,0.61,2.54,0.13,0.89
1.174,-0.06,-1.48,0.61,2.56,0.16,0.81
1.174,-0.06,-1.48,0.61,2.57,0.17,0.63
1.174,-0.06,-1.48,0.61,2.57,0.17,0.63
1.175,-0.06,-1.48,0.61,2.56,0.16,0.62
1.175,-0.06,-1.48,0.61,2.55,0.16,0.61
1.175,-0.06,-1.48,0.61,2.55,0.16,0.61
1.179,-0.06,-1.48,0.61,2.55,0.16,0.61
1.179,-0.06,-1.48,0.61,2.52,0.15,0.6
1.179,0.6,0.69,-1.27,2.52,0.15,0.6
1.179,0.53,0.38,-0.95,2.52,0.15,0.6
1.18,0.5,0.23,-0.79,2.52,0.15,0.6
1.19,0.5,0.23,-0.79,2.48,0.14,0.59
1.191,0.5,0.23,-0.79,2.46,0.13,0.58
1.191,0.5,0.23,-0.79,2.41,0.13,0.57
1.191,0.5,0.23,-0.79,2.35,0.13,0.56
1.191,0.5,0.23,-0.79,2.29,0.14,0.54
1.191,0.5,0.23,-0.79,2.26,0.16,0.52
1.192,0.5,0.23,-0.79,2.21,0.2,0.49
1.192,0.5,0.23,-0.79,2.21,0.2,0.49
1.192,0.5,0.23,-0.79,2.15,0.26,0.46
1.192,-0.8,1.28,-2.29,2.15,0.26,0.46
1.193,-0.8,1.28,-2.29,2.09,0.3,0.43
1.193,-0.8,1.28,-2.29,2.06,0.32,0.41
1.194,-0.8,1.28,-2.29,1.99,0.35,0.37
1.197,-0.8,1.28,-2.29,1.92,0.38,0.32
1.213,-0.8,1.28,-2.29,1.88,0.39,0.3
1.213,-0.8,1.28,-2.29,1.56,0.42,0.14
1.214,-0.8,1.28,-2.29,1.54,0.42,0.13
1.214,-0.8,1.28,-2.29,1.5,0.42,0.12
1.214,-0.8,1.28,-2.29,1.5,0.42,0.12
1.214,-0.8,1.28,-2.29,1.5,0.42,0.12
1.214,-0.8,1.28,-2.29,1.5,0.42,0.12
1.214,-0.08,-1.2,-2.38,1.5,0.42,0.12
1.215,-0.06,-1.4,-2.17,1.5,0.42,0.12
1.215,-0.04,-1.49,-2.07,1.5,0.42,0.12
1.215,-0.04,-1.49,-2.07,1.45,0.41,0.12
1.215,-0.04,-1.49,-2.07,1.42,0.41,0.11
1.217,-0.04,-1.49,-2.07,1.38,0.4,0.1
1.22,-0.04,-1.49,-2.07,1.34,0.4,0.1
1.221,0.28,-1.18,-1.21,1.34,0.4,0.1
1.221,0.28,-1.18,-1.21,1.32,0.4,0.1
1.223,0.28,-1.18,-1.21,1.29,0.41,0.09
1.224,0.28,-1.18,-1.21,1.26,0.42,0.09
1.227,0.28,-1.18,-1.21,1.23,0.44,0.08
1.23,0.28,-1.18,-1.21,1.21,0.45,0.08
1.23,0.55,-0.25,-0.62,1.21,0.45,0.08
1.233,0.55,-0.25,-0.62,1.19,0.49,0.07
1.233,0.55,-0.25,-0.62,1.16,0.52,0.06
1.235,0.55,-0.25,-0.62,1.13,0.55,0.06
1.237,0.55,-0.25,-0.62,1.11,0.57,0.06
1.252,0.55,-0.25,-0.62,1.09,0.61,0.06
1.253,0.55,-0.25,-0.62,0.89,0.65,0.05
1.253,0.55,-0.25,-0.62,0.89,0.65,0.05
1.253,0.55,-0.25,-0.62,0.89,0.65,0.05
1.253,0.55,-0.25,-0.62,0.86,0.65,0.04
1.254,0.55,-0.25,-0.62,0.86,0.65,0.04
1.254,0.55,-0.25,-0.62,0.83,0.65,0.03
1.254,0.39,0.11,-1.67,0.83,0.65,0.03
1.254,0.45,0,-1.56,0.83,0.65,0.03
1.255,0.45,0,-1.56,0.76,0.64,0.01
1.255,0.45,0,-1.56,0.69,0.63,-0.01
1.257,0.45,0,-1.56,0.61,0.61,-0.04
1.26,0.45,0,-1.56,0.58,0.6,-0.05
1.26,0.67,0.66,-2.21,0.58,0.6,-0.05
1.26,0.67,0.66,-2.21,0.49,0.58,-0.05
1.263,0.67,0.66,-2.21,0.41,0.54,-0.04
1.265,0.67,0.66,-2.21,0.36,0.51,-0.03
1.267,0.67,0.66,-2.21,0.26,0.46,0.02
1.27,0.67,0.66,-2.21,0.16,0.4,0.09
1.271,-1.53,3.21,-2.51,0.16,0.4,0.09
1.271,-1.53,3.21,-2.51,0.03,0.34,0.17
1.274,-1.53,3.21,-2.51,-0.04,0.31,0.22
1.275,-1.53,3.21,-2.51,-0.2,0.24,0.3
1.276,-1.53,3.21,-2.51,-0.36,0.16,0.36
1.292,-1.53,3.21,-2.51,-0.53,0.08,0.4
1.293,-1.53,3.21,-2.51,-0.86,-0.23,0.21
1.293,-1.53,3.21,-2.51,-0.86,-0.23,0.21
1.293,-1.53,3.21,-2.51,-0.86,-0.23,0.21
1.293,-1.53,3.21,-2.51,-0.85,-0.25,0.17
1.294,-1.53,3.21,-2.51,-0.82,-0.27,0.13
1.294,-1.53,3.21,-2.51,-0.82,-0.27,0.13
1.294,4.12,2.12,5.17,-0.82,-0.27,0.13
1.294,4.06,2.22,5.07,-0.82,-0.27,0.13
1.295,4.03,2.27,5.02,-0.82,-0.27,0.13
1.295,4.03,2.27,5.02,-0.74,-0.31,0.05
1.295,4.03,2.27,5.02,-0.7,-0.33,0
1.302,4.03,2.27,5.02,-0.58,-0.35,-0.09
1.302,4.03,2.27,5.02,-0.44,-0.35,-0.19
1.303,5.52,0.4,7.79,-0.44,-0.35,-0.19
1.303,5.52,0.4,7.79,-0.29,-0.31,-0.29
1.303,5.52,0.4,7.79,-0.21,-0.28,-0.35
1.305,5.52,0.4,7.79,-0.06,-0.21,-0.44
1.308,5.52,0.4,7.79,0.09,-0.11,-0.53
1.31,5.52,0.4,7.79,0.24,-0.01,-0.57
1.31,5.67,-1.12,7.85,0.24,-0.01,-0.57
1.31,5.67,-1.12,7.85,0.31,0.05,-0.65
1.313,5.67,-1.12,7.85,0.44,0.18,-0.7
1.315,5.67,-1.12,7.85,0.55,0.32,-0.74
1.317,5.67,-1.12,7.85,0.61,0.38,-0.75
1.333,5.67,-1.12,7.85,0.7,0.52,-0.75
1.334,5.67,-1.12,7.85,0.82,1.06,-0.67
1.334,5.67,-1.12,7.85,0.82,1.06,-0.67
1.334,5.67,-1.12,7.85,0.8,1.11,-0.66
1.334,5.67,-1.12,7.85,0.79,1.15,-0.65
1.334,5.67,-1.12,7.85,0.79,1.15,-0.65
1.335,5.67,-1.12,7.85,0.79,1.15,-0.65
1.337,5.67,-1.12,7.85,0.76,1.18,-0.64
1.337,1.57,-2.72,2.73,0.76,1.18,-0.64
1.338,1.65,-2.78,2.77,0.76,1.18,-0.64
1.338,1.77,-2.85,2.8,0.76,1.18,-0.64
1.338,1.77,-2.85,2.8,0.7,1.25,-0.62
1.338,1.77,-2.85,2.8,0.63,1.3,-0.6
1.34,1.77,-2.85,2.8,0.59,1.33,-0.59
1.34,0.89,-2.5,0.55,0.59,1.33,-0.59
1.341,0.89,-2.5,0.55,0.51,1.37,-0.57
1.343,0.89,-2.5,0.55,0.43,1.41,-0.56
1.345,0.89,-2.5,0.55,0.34,1.45,-0.55
1.347,0.89,-2.5,0.55,0.31,1.48,-0.55
1.35,0.89,-2.5,0.55,0.24,1.51,-0.54
1.35,-0.42,-1.55,-1,0.24,1.51,-0.54
1.351,-0.42,-1.55,-1,0.17,1.55,-0.53
1.352,-0.42,-1.55,-1,0.11,1.58,-0.53
1.355,-0.42,-1.55,-1,0.08,1.6,-0.53
1.357,-0.42,-1.55,-1,0.03,1.63,-0.53
1.372,-0.42,-1.55,-1,-0.01,1.65,-0.53
1.373,-0.42,-1.55,-1,-0.14,1.65,-0.6
1.373,-0.42,-1.55,-1,-0.14,1.65,-0.6
1.373,-0.42,-1.55,-1,-0.15,1.63,-0.6
1.373,-0.42,-1.55,-1,-0.16,1.62,-0.61
1.374,-0.42,-1.55,-1,-0.16,1.62,-0.61
1.374,-0.42,-1.55,-1,-0.16,1.62,-0.61
1.374,-0.42,-1.55,-1,-0.19,1.58,-0.63
1.374,-1.43,-1.92,-1.64,-0.19,1.58,-0.63
1.374,-1.15,-1.94,-1.73,-0.19,1.58,-0.63
1.375,-1.15,-1.94,-1.73,-0.21,1.53,-0.64
1.377,-1.15,-1.94,-1.73,-0.22,1.51,-0.64
1.385,-1.15,-1.94,-1.73,-0.23,1.45,-0.65
1.386,-1.85,-1.78,-1.64,-0.23,1.45,-0.65
1.386,-1.85,-1.78,-1.64,-0.25,1.39,-0.65
1.386,-1.85,-1.78,-1.64,-0.26,1.36,-0.64
1.386,-1.85,-1.78,-1.64,-0.28,1.3,-0.64
1.386,-1.85,-1.78,-1.64,-0.29,1.23,-0.62
1.389,-1.72,-1.78,-1.69,-0.29,1.23,-0.62
1.389,-1.72,-1.78,-1.69,-0.3,1.16,-0.6
1.39,-1.72,-1.78,-1.69,-0.31,1.13,-0.59
1.392,-1.72,-1.78,-1.69,-0.33,1.07,-0.56
1.395,-1.72,-1.78,-1.69,-0.35,1.01,-0.54
1.396,-1.72,-1.78,-1.69,-0.36,0.95,-0.51
1.412,-2.33,-1.59,-1.53,-0.36,0.95,-0.51
1.413,-2.17,-1.56,-1.62,-0.36,0.95,-0.51
1.413,-2.1,-1.53,-1.67,-0.36,0.95,-0.51
1.413,-2.1,-1.53,-1.67,-0.38,0.92,-0.49
1.414,-2.1,-1.53,-1.67,-0.46,0.67,-0.39
1.414,-2.1,-1.53,-1.67,-0.47,0.64,-0.38
1.414,-2.1,-1.53,-1.67,-0.47,0.64,-0.38
1.414,-2.1,-1.53,-1.67,-0.47,0.64,-0.38
1.415,-2.1,-1.53,-1.67,-0.48,0.61,-0.37
1.415,-2.1,-1.53,-1.67,-0.5,0.58,-0.36
1.415,-2.1,-1.53,-1.67,-0.51,0.55,-0.35
1.415,-2.1,-1.53,-1.67,-0.53,0.5,-0.34
1.419,-2.1,-1.53,-1.67,-0.55,0.45,-0.33
1.421,-2.1,-1.53,-1.67,-0.57,0.4,-0.31
1.421,-2.1,-1.53,-1.67,-0.57,0.38,-0.31
1.421,-2.24,-0.76,-1.27,-0.57,0.38,-0.31
1.422,-2.24,-0.76,-1.27,-0.59,0.34,-0.29
1.425,-2.24,-0.76,-1.27,-0.59,0.3,-0.27
1.427,-2.24,-0.76,-1.27,-0.6,0.27,-0.26
1.43,-2.24,-0.76,-1.27,-0.6,0.24,-0.24
1.43,-2.27,-0.46,-0.34,-0.6,0.24,-0.24
1.432,-2.27,-0.46,-0.34,-0.6,0.19,-0.22
1.432,-2.27,-0.46,-0.34,-0.59,0.15,-0.2
1.435,-2.27,-0.46,-0.34,-0.59,0.14,-0.18
1.436,-2.27,-0.46,-0.34,-0.58,0.1,-0.16
1.453,-2.27,-0.46,-0.34,-0.58,0.07,-0.13
1.454,-2.27,-0.46,-0.34,-0.54,0.01,-0.03
1.454,-2.27,-0.46,-0.34,-0.54,0,-0.01
1.454,-2.27,-0.46,-0.34,-0.54,0,0
1.454,-2.27,-0.46,-0.34,-0.54,0,0
1.454,-2.27,-0.46,-0.34,-0.54,0,0
1.455,-2.27,-0.46,-0.34,-0.53,0,0
1.455,-2.27,-0.46,-0.34,-0.53,0,0.03
1.455,-2.22,-0.39,0.91,-0.53,0,0.03
1.455,-2.21,-0.35,0.87,-0.53,0,0.03
1.456,-2.21,-0.32,0.83,-0.53,0,0.03
1.456,-2.21,-0.32,0.83,-0.52,0.02,0.05
1.456,-2.21,-0.32,0.83,-0.52,0.02,0.06
1.461,-2.21,-0.32,0.83,-0.51,0.04,0.07
1.461,-2.21,-0.32,0.83,-0.5,0.05,0.08
1.462,-1.75,-0.27,0.97,-0.5,0.05,0.08
1.464,-1.75,-0.27,0.97,-0.5,0.07,0.09
1.467,-1.75,-0.27,0.97,-0.49,0.08,0.09
1.467,-1.75,-0.27,0.97,-0.49,0.09,0.09
1.47,-1.75,-0.27,0.97,-0.48,0.09,0.08
1.47,-0.98,-0.23,1.06,-0.48,0.09,0.08
1.47,-0.98,-0.23,1.06,-0.48,0.09,0.08
1.472,-0.98,-0.23,1.06,-0.47,0.08,0.07
1.475,-0.98,-0.23,1.06,-0.47,0.08,0.06
1.476,-0.98,-0.23,1.06,-0.46,0.07,0.04
1.491,-0.98,-0.23,1.06,-0.46,0.06,0.03
1.492,-0.98,-0.23,1.06,-0.41,0.02,-0.05
1.492,-0.98,-0.23,1.06,-0.4,0.02,-0.06
1.492,-0.98,-0.23,1.06,-0.4,0.02,-0.06
1.492,-0.98,-0.23,1.06,-0.4,0.02,-0.06
1.492,-0.98,-0.23,1.06,-0.39,0.01,-0.07
1.493,-0.98,-0.23,1.06,-0.38,0.01,-0.08
1.493,0.02,0.17,1.79,-0.38,0.01,-0.08
1.496,0.03,0.22,1.72,-0.38,0.01,-0.08
1.497,0.03,0.22,1.72,-0.37,0.01,-0.09
1.497,0.03,0.22,1.72,-0.35,0,-0.1
1.497,0.03,0.22,1.72,-0.32,0,-0.11
1.503,0.03,0.22,1.72,-0.29,-0.01,-0.12
1.503,-0.26,0.18,1.93,-0.29,-0.01,-0.12
1.504,-0.26,0.18,1.93,-0.28,-0.01,-0.12
1.504,-0.26,0.18,1.93,-0.25,-0.02,-0.13
1.504,-0.26,0.18,1.93,-0.23,-0.03,-0.13
1.507,-0.26,0.18,1.93,-0.2,-0.04,-0.13
1.51,-0.26,0.18,1.93,-0.19,-0.04,-0.13
1.51,-0.46,-0.01,1.9,-0.19,-0.04,-0.13
1.511,-0.46,-0.01,1.9,-0.16,-0.06,-0.13
1.513,-0.46,-0.01,1.9,-0.14,-0.07,-0.13
1.514,-0.46,-0.01,1.9,-0.13,-0.08,-0.13
1.516,-0.46,-0.01,1.9,-0.11,-0.09,-0.13
1.532,-0.46,-0.01,1.9,-0.1,-0.09,-0.12
1.532,-0.46,-0.01,1.9,-0.04,-0.14,-0.08
1.532,-0.46,-0.01,1.9,-0.04,-0.14,-0.08
1.532,-0.46,-0.01,1.9,-0.04,-0.14,-0.08
1.533,-0.46,-0.01,1.9,-0.03,-0.15,-0.07
1.533,-0.46,-0.01,1.9,-0.02,-0.16,-0.07
1.533,-0.46,-0.01,1.9,-0.02,-0.16,-0.07
1.533,-0.97,-0.28,1.54,-0.02,-0.16,-0.07
1.533,-0.96,-0.26,1.52,-0.02,-0.16,-0.07
1.534,-0.96,-0.26,1.52,-0.01,-0.17,-0.06
1.536,-0.96,-0.26,1.52,0.01,-0.2,-0.05
1.537,-0.96,-0.26,1.52,0.02,-0.21,-0.05
1.54,-0.96,-0.26,1.52,0.04,-0.23,-0.04
1.54,-0.51,-0.5,1.78,0.04,-0.23,-0.04
1.54,-0.51,-0.5,1.78,0.07,-0.25,-0.04
1.542,-0.51,-0.5,1.78,0.09,-0.26,-0.04
1.544,-0.51,-0.5,1.78,0.1,-0.27,-0.04
1.547,-0.51,-0.5,1.78,0.13,-0.27,-0.05
1.55,-0.51,-0.5,1.78,0.15,-0.28,-0.05
1.55,-0.34,-0.56,1.68,0.15,-0.28,-0.05
1.552,-0.34,-0.56,1.68,0.17,-0.28,-0.05
1.553,-0.34,-0.56,1.68,0.18,-0.28,-0.05
1.555,-0.34,-0.56,1.68,0.19,-0.28,-0.05
1.556,-0.34,-0.56,1.68,0.2,-0.28,-0.05
1.573,-0.34,-0.56,1.68,0.21,-0.28,-0.05
1.573,-0.34,-0.56,1.68,0.21,-0.23,-0.02
1.573,-0.34,-0.56,1.68,0.21,-0.23,-0.02
1.574,-0.34,-0.56,1.68,0.2,-0.22,-0.01
1.574,-0.34,-0.56,1.68,0.2,-0.22,-0.01
1.574,-0.34,-0.56,1.68,0.2,-0.22,-0.01
1.574,-0.34,-0.56,1.68,0.2,-0.22,-0.01
1.575,-0.35,-0.57,1.69,0.2,-0.22,-0.01
1.575,-0.36,-0.58,1.7,0.2,-0.22,-0.01
1.575,-0.37,-0.59,1.72,0.2,-0.22,-0.01
1.576,-0.37,-0.59,1.72,0.19,-0.19,0
1.576,-0.37,-0.59,1.72,0.18,-0.18,0.01
1.578,-0.37,-0.59,1.72,0.16,-0.14,0.02
1.584,-0.37,-0.59,1.72,0.14,-0.1,0.03
1.584,-0.37,-0.59,1.72,0.13,-0.08,0.04
1.585,-1.04,-0.22,-0.06,0.13,-0.08,0.04
1.585,-1.04,-0.22,-0.06,0.11,-0.03,0.05
1.585,-1.04,-0.22,-0.06,0.08,0.02,0.06
1.59,-1.04,-0.22,-0.06,0.05,0.06,0.07
1.591,-1.04,-0.22,-0.06,0.04,0.09,0.08
1.591,-0.83,-0.49,-0.3,0.04,0.09,0.08
1.591,-0.83,-0.49,-0.3,0.02,0.13,0.09
1.593,-0.83,-0.49,-0.3,-0.01,0.17,0.09
1.595,-0.83,-0.49,-0.3,-0.03,0.21,0.1
1.597,-0.83,-0.49,-0.3,-0.05,0.23,0.1
1.613,-0.83,-0.49,-0.3,-0.07,0.27,0.1
1.614,-0.83,-0.49,-0.3,-0.13,0.39,0.11
1.614,-0.83,-0.49,-0.3,-0.13,0.39,0.11
1.614,-0.83,-0.49,-0.3,-0.14,0.4,0.11
1.615,-0.83,-0.49,-0.3,-0.15,0.41,0.11
1.615,-0.83,-0.49,-0.3,-0.15,0.41,0.11
1.615,-0.83,-0.49,-0.3,-0.15,0.41,0.11
1.615,-0.73,-0.58,-0.11,-0.15,0.41,0.11
1.615,-0.69,-0.56,-0.14,-0.15,0.41,0.11
1.616,-0.69,-0.56,-0.14,-0.16,0.42,0.12
1.616,-0.69,-0.56,-0.14,-0.17,0.42,0.12
1.617,-0.69,-0.56,-0.14,-0.18,0.41,0.13
1.62,-0.69,-0.56,-0.14,-0.19,0.41,0.13
1.62,-0.79,-0.45,0.1,-0.19,0.41,0.13
1.621,-0.79,-0.45,0.1,-0.19,0.4,0.14
1.622,-0.79,-0.45,0.1,-0.2,0.38,0.15
1.624,-0.79,-0.45,0.1,-0.2,0.38,0.15
1.626,-0.79,-0.45,0.1,-0.2,0.36,0.16
1.63,-0.79,-0.45,0.1,-0.21,0.35,0.17
1.63,-0.9,-0.38,0.4,-0.21,0.35,0.17
1.631,-0.9,-0.38,0.4,-0.21,0.34,0.18
1.633,-0.9,-0.38,0.4,-0.21,0.33,0.18
1.635,-0.9,-0.38,0.4,-0.21,0.31,0.19
1.637,-0.9,-0.38,0.4,-0.2,0.29,0.19
1.654,-0.9,-0.38,0.4,-0.2,0.27,0.2
1.654,-0.9,-0.38,0.4,-0.16,0.13,0.19
1.655,-0.9,-0.38,0.4,-0.16,0.13,0.19
1.655,-0.9,-0.38,0.4,-0.16,0.13,0.19
1.655,-0.9,-0.38,0.4,-0.16,0.13,0.19
1.655,-0.9,-0.38,0.4,-0.15,0.11,0.19
1.656,-0.9,-0.38,0.4,-0.15,0.09,0.18
1.656,-0.9,-0.38,0.4,-0.14,0.04,0.18
1.656,-0.26,-0.5,0.81,-0.14,0.04,0.18
1.656,-0.25,-0.47,0.78,-0.14,0.04,0.18
1.657,-0.25,-0.47,0.78,-0.13,0.02,0.18
1.66,-0.25,-0.47,0.78,-0.11,-0.03,0.17
1.66,-0.25,-0.47,0.78,-0.1,-0.07,0.15
1.661,0.01,-0.41,0.97,-0.1,-0.07,0.15
1.661,0.01,-0.41,0.97,-0.08,-0.12,0.14
1.663,0.01,-0.41,0.97,-0.07,-0.14,0.14
1.665,0.01,-0.41,0.97,-0.04,-0.18,0.13
1.666,0.01,-0.41,0.97,-0.02,-0.21,0.12
1.67,0.01,-0.41,0.97,-0.01,-0.22,0.11
1.67,0.07,-0.1,1.2,-0.01,-0.22,0.11
1.67,0.07,-0.1,1.2,0.01,-0.25,0.11
1.672,0.07,-0.1,1.2,0.04,-0.27,0.1
1.674,0.07,-0.1,1.2,0.06,-0.29,0.09
1.676,0.07,-0.1,1.2,0.08,-0.3,0.09
1.694,0.07,-0.1,1.2,0.1,-0.32,0.09
1.695,0.07,-0.1,1.2,0.19,-0.39,0.07
1.695,0.07,-0.1,1.2,0.2,-0.39,0.07
1.695,0.07,-0.1,1.2,0.2,-0.39,0.07
1.695,0.07,-0.1,1.2,0.21,-0.39,0.06
1.695,0.07,-0.1,1.2,0.21,-0.39,0.06
1.695,0.07,-0.1,1.2,0.21,-0.39,0.06
1.695,0.07,-0.1,1.2,0.21,-0.4,0.06
1.696,0.14,-0.06,1.08,0.21,-0.4,0.06
1.696,0.11,-0.06,1.08,0.21,-0.4,0.06
1.696,0.09,-0.07,1.1,0.21,-0.4,0.06
1.696,0.09,-0.07,1.1,0.22,-0.4,0.06
1.697,0.09,-0.07,1.1,0.23,-0.4,0.05
1.701,0.09,-0.07,1.1,0.23,-0.4,0.05
1.702,0.09,-0.07,1.1,0.23,-0.38,0.05
1.702,0,-0.24,0.56,0.23,-0.38,0.05
1.702,0,-0.24,0.56,0.22,-0.36,0.06
1.705,0,-0.24,0.56,0.21,-0.34,0.06
1.707,0,-0.24,0.56,0.2,-0.33,0.06
1.71,0,-0.24,0.56,0.19,-0.3,0.07
1.71,-0.32,-0.23,-0.04,0.19,-0.3,0.07
1.71,-0.32,-0.23,-0.04,0.18,-0.27,0.07
1.713,-0.32,-0.23,-0.04,0.17,-0.25,0.07
1.717,-0.32,-0.23,-0.04,0.15,-0.23,0.08
1.718,-0.32,-0.23,-0.04,0.13,-0.21,0.09
1.731,-0.32,-0.23,-0.04,0.11,-0.19,0.09
1.732,-0.32,-0.23,-0.04,0.04,-0.13,0.08
1.732,-0.32,-0.23,-0.04,0.04,-0.13,0.08
1.732,-0.32,-0.23,-0.04,0.04,-0.13,0.08
1.732,-0.32,-0.23,-0.04,0.04,-0.13,0.08
1.732,-0.32,-0.23,-0.04,0.04,-0.12,0.08
1.733,-0.32,-0.23,-0.04,0.03,-0.12,0.08
1.733,-0.34,-0.24,-0.03,0.03,-0.12,0.08
1.733,-0.37,-0.24,-0.02,0.03,-0.12,0.08
1.733,-0.37,-0.24,-0.02,0.02,-0.11,0.08
1.735,-0.37,-0.24,-0.02,0.01,-0.11,0.08
1.736,-0.37,-0.24,-0.02,0,-0.1,0.07
1.74,-0.37,-0.24,-0.02,-0.01,-0.1,0.07
1.74,-0.08,-0.22,-0.11,-0.01,-0.1,0.07
1.74,-0.08,-0.22,-0.11,-0.02,-0.08,0.06
1.742,-0.08,-0.22,-0.11,-0.02,-0.08,0.06
1.744,-0.08,-0.22,-0.11,-0.03,-0.07,0.06
1.747,-0.08,-0.22,-0.11,-0.04,-0.06,0.06
1.75,-0.09,-0.21,-0.11,-0.04,-0.06,0.06
1.753,-0.09,-0.21,-0.11,-0.05,-0.05,0.06
1.754,-0.09,-0.21,-0.11,-0.05,-0.05,0.06
1.754,-0.09,-0.21,-0.11,-0.06,-0.04,0.06
1.755,-0.09,-0.21,-0.11,-0.07,-0.04,0.06
1.758,-0.09,-0.21,-0.11,-0.07,-0.04,0.06
1.773,-0.09,-0.21,-0.11,-0.08,-0.04,0.06
1.774,-0.09,-0.21,-0.11,-0.1,-0.08,0.06
1.774,-0.09,-0.21,-0.11,-0.1,-0.08,0.05
1.774,-0.09,-0.21,-0.11,-0.1,-0.08,0.05
1.775,-0.09,-0.21,-0.11,-0.1,-0.09,0.05
1.775,-0.09,-0.21,-0.11,-0.11,-0.09,0.05
1.775,-0.09,-0.21,-0.11,-0.11,-0.09,0.05
1.775,-0.09,-0.21,-0.11,-0.11,-0.1,0.05
1.776,-0.12,-0.25,0.16,-0.11,-0.1,0.05
1.776,-0.13,-0.24,0.15,-0.11,-0.1,0.05
1.776,-0.13,-0.24,0.15,-0.11,-0.1,0.05
1.776,-0.13,-0.24,0.15,-0.11,-0.11,0.04
1.785,-0.13,-0.24,0.15,-0.11,-0.11,0.04
1.793,-0.25,-0.09,0.1,-0.11,-0.11,0.04
1.793,-0.25,-0.09,0.1,-0.12,-0.11,0.04
1.794,-0.25,-0.09,0.1,-0.12,-0.11,0.04
1.795,-0.25,-0.09,0.1,-0.12,-0.11,0.04
1.795,-0.25,-0.09,0.1,-0.12,-0.11,0.04
1.795,-0.25,-0.09,0.1,-0.12,-0.11,0.04
1.795,-0.17,-0.17,0.18,-0.12,-0.11,0.04
1.795,-0.17,-0.17,0.18,-0.12,-0.12,0.03
1.796,-0.17,-0.17,0.18,-0.12,-0.13,0.03
1.796,-0.17,-0.17,0.18,-0.12,-0.13,0.03
1.8,-0.17,-0.17,0.18,-0.12,-0.14,0.03
1.812,-0.17,-0.17,0.18,-0.12,-0.14,0.02
1.812,-0.17,-0.17,0.18,-0.12,-0.09,-0.01
1.812,-0.17,-0.17,0.18,-0.12,-0.08,-0.02
1.812,-0.17,-0.17,0.18,-0.12,-0.07,-0.02
1.812,-0.17,-0.17,0.18,-0.12,-0.07,-0.02
1.812,-0.17,-0.17,0.18,-0.12,-0.07,-0.02
1.813,-0.17,-0.17,0.18,-0.12,-0.07,-0.02
1.813,0.14,0.01,0.69,-0.12,-0.07,-0.02
1.813,0.13,0.03,0.67,-0.12,-0.07,-0.02
1.813,0.13,0.03,0.67,-0.11,-0.05,-0.02
1.815,0.13,0.03,0.67,-0.1,-0.02,-0.03
1.817,0.13,0.03,0.67,-0.09,-0.01,-0.03
1.82,0.13,0.03,0.67,-0.08,0.01,-0.04
1.821,0.13,0.03,0.67,-0.08,0.02,-0.04
1.823,0.11,0.06,0.76,-0.08,0.02,-0.04
1.823,0.11,0.06,0.76,-0.08,0.03,-0.04
1.824,0.11,0.06,0.76,-0.07,0.04,-0.05
1.827,0.11,0.06,0.76,-0.07,0.04,-0.05
1.831,0.11,0.06,0.76,-0.07,0.06,-0.05
1.831,0.04,0.08,0.68,-0.07,0.06,-0.05
1.832,0.04,0.08,0.68,-0.07,0.06,-0.06
1.832,0.04,0.08,0.68,-0.07,0.06,-0.06
1.835,0.04,0.08,0.68,-0.07,0.07,-0.06
1.838,0.04,0.08,0.68,-0.07,0.07,-0.06
1.851,0.04,0.08,0.68,-0.07,0.07,-0.07
1.852,0.04,0.08,0.68,-0.06,0.1,-0.07
1.852,0.04,0.08,0.68,-0.06,0.1,-0.07
1.853,0.04,0.08,0.68,-0.06,0.1,-0.07
1.853,0.04,0.08,0.68,-0.06,0.1,-0.07
1.853,0.04,0.08,0.68,-0.05,0.1,-0.06
1.853,0.04,0.08,0.68,-0.05,0.11,-0.06
1.854,-0.37,-0.19,0.52,-0.05,0.11,-0.06
1.854,-0.34,-0.18,0.5,-0.05,0.11,-0.06
1.854,-0.34,-0.18,0.5,-0.05,0.11,-0.06
1.854,-0.34,-0.18,0.5,-0.05,0.11,-0.06
1.856,-0.34,-0.18,0.5,-0.05,0.11,-0.05
1.86,-0.34,-0.18,0.5,-0.05,0.11,-0.05
1.86,-0.53,-0.29,0.4,-0.05,0.11,-0.05
1.86,-0.53,-0.29,0.4,-0.05,0.11,-0.04
1.865,-0.53,-0.29,0.4,-0.05,0.12,-0.04
1.866,-0.53,-0.29,0.4,-0.05,0.11,-0.03
1.866,-0.53,-0.29,0.4,-0.05,0.11,-0.03
1.87,-0.52,-0.28,0.39,-0.05,0.11,-0.03
1.87,-0.52,-0.28,0.39,-0.05,0.11,-0.02
1.871,-0.52,-0.28,0.39,-0.05,0.1,-0.02
1.874,-0.52,-0.28,0.39,-0.05,0.1,-0.02
1.875,-0.52,-0.28,0.39,-0.05,0.1,-0.01
1.876,-0.52,-0.28,0.39,-0.06,0.09,-0.01
1.892,-0.52,-0.28,0.39,-0.06,0.09,-0.01
1.893,-0.52,-0.28,0.39,-0.07,0.07,0.01
1.893,-0.52,-0.28,0.39,-0.07,0.07,0.01
1.894,-0.52,-0.28,0.39,-0.07,0.07,0.01
1.894,-0.52,-0.28,0.39,-0.07,0.07,0.01
1.894,-0.52,-0.28,0.39,-0.07,0.06,0.01
1.894,-0.52,-0.28,0.39,-0.07,0.06,0.01
1.895,-0.74,-0.19,0.11,-0.07,0.06,0.01
1.896,-0.72,-0.18,0.09,-0.07,0.06,0.01
1.896,-0.72,-0.18,0.09,-0.07,0.05,0.01
1.896,-0.72,-0.18,0.09,-0.07,0.04,0.02
1.898,-0.72,-0.18,0.09,-0.07,0.03,0.02
1.9,-0.72,-0.18,0.09,-0.07,0.01,0.02
1.901,-0.69,-0.23,0.24,-0.07,0.01,0.02
1.901,-0.69,-0.23,0.24,-0.07,-0.01,0.02
1.903,-0.69,-0.23,0.24,-0.06,-0.03,0.03
1.904,-0.69,-0.23,0.24,-0.06,-0.04,0.03
1.907,-0.69,-0.23,0.24,-0.06,-0.05,0.03
1.91,-0.69,-0.23,0.24,-0.06,-0.06,0.04
1.91,-0.64,-0.29,0.35,-0.06,-0.06,0.04
1.911,-0.64,-0.29,0.35,-0.05,-0.06,0.04
1.913,-0.64,-0.29,0.35,-0.05,-0.06,0.04
1.915,-0.64,-0.29,0.35,-0.04,-0.06,0.05
1.917,-0.64,-0.29,0.35,-0.04,-0.07,0.05
1.933,-0.64,-0.29,0.35,-0.04,-0.06,0.06
1.934,-0.64,-0.29,0.35,-0.02,-0.06,0.07
1.934,-0.64,-0.29,0.35,-0.02,-0.06,0.07
1.935,-0.64,-0.29,0.35,-0.01,-0.06,0.07
1.935,-0.64,-0.29,0.35,-0.01,-0.06,0.07
1.935,-0.64,-0.29,0.35,-0.01,-0.06,0.07
1.935,-0.64,-0.29,0.35,-0.01,-0.06,0.07
1.936,-0.64,-0.29,0.35,-0.01,-0.06,0.07
1.936,-0.32,-0.2,0.67,-0.01,-0.06,0.07
1.936,-0.33,-0.2,0.67,-0.01,-0.06,0.07
1.937,-0.33,-0.19,0.67,-0.01,-0.06,0.07
1.937,-0.33,-0.19,0.67,0,-0.07,0.07
1.937,-0.33,-0.19,0.67,0.01,-0.08,0.07
1.94,-0.33,-0.19,0.67,0.01,-0.09,0.07
1.941,-0.33,-0.19,0.67,0.02,-0.09,0.07
1.941,-0.16,-0.04,0.75,0.02,-0.09,0.07
1.943,-0.16,-0.04,0.75,0.02,-0.09,0.06
