time,ax,ay,az,wx,wy,wz
0.001,0.01,0,0.14,-0.04,-0.08,0
0.002,0.01,0,0.14,-0.02,-0.04,0
0.002,0.01,0,0.14,-0.02,-0.04,0
0.002,0.01,0,0.14,-0.02,-0.03,0
0.002,0.01,0,0.14,-0.01,-0.03,0
0.002,0.01,0,0.14,-0.01,-0.03,0
0.002,0.01,0,0.14,-0.01,-0.03,0
0.003,0.02,-0.02,0.22,-0.01,-0.03,0
0.003,0.01,-0.01,0.22,-0.01,-0.03,0
0.003,0.01,-0.01,0.22,-0.01,-0.02,0
0.003,0.01,-0.01,0.22,-0.01,-0.01,0
0.004,0.01,-0.01,0.22,0,0,0
0.007,0.01,-0.01,0.22,0,0.01,0
0.007,0.01,-0.02,0.25,0,0.01,0
0.008,0.01,-0.02,0.25,0.01,0.01,0
0.01,0.01,-0.02,0.25,0.01,0.02,0
0.014,0.01,-0.02,0.25,0.01,0.03,0
0.015,0.01,-0.02,0.25,0.02,0.03,0
0.017,0.01,-0.02,0.25,0.02,0.04,0
0.017,0.01,-0.02,0.26,0.02,0.04,0
0.018,0.01,-0.02,0.26,0.02,0.04,0
0.02,0.01,-0.02,0.26,0.03,0.05,0
0.022,0.01,-0.02,0.26,0.02,0.04,0
0.024,0.01,-0.02,0.26,0.02,0.05,0
0.039,0.01,-0.02,0.26,0.03,0.05,0
0.039,0.01,-0.02,0.26,0.02,0.04,0
0.04,0.01,-0.02,0.26,0.02,0.04,0
0.04,0.01,-0.02,0.26,0.02,0.03,0
0.04,0.01,-0.02,0.26,0.02,0.03,0
0.04,0.01,-0.02,0.26,0.02,0.03,0
0.04,0.01,-0.02,0.26,0.02,0.03,0
0.04,0,-0.02,0.23,0.02,0.03,0
0.041,0,-0.02,0.23,0.02,0.03,0
0.041,0,-0.02,0.23,0.02,0.03,0
0.042,0,-0.02,0.23,0.01,0.02,0
0.044,0,-0.02,0.23,0.01,0.01,0
0.047,0,-0.02,0.23,0.01,0.02,0
0.048,0,-0.02,0.22,0.01,0.02,0
0.049,0,-0.02,0.22,0.01,0.01,0
0.05,0,-0.02,0.22,0,0,0
0.052,0,-0.02,0.22,0,0,0
0.054,0,-0.02,0.22,0,0,0
0.057,0,-0.02,0.22,0,-0.01,0
0.057,0,-0.02,0.21,0,-0.01,0
0.058,0,-0.02,0.21,-0.01,-0.01,0
0.06,0,-0.02,0.21,-0.01,-0.01,0
0.062,0,-0.02,0.21,-0.01,-0.02,0
0.064,0,-0.02,0.21,0,-0.02,0
0.079,0,-0.02,0.21,-0.01,-0.03,0
0.079,0,-0.02,0.21,-0.02,-0.03,0
0.079,0,-0.02,0.21,-0.02,-0.03,0
0.08,0,-0.02,0.21,-0.02,-0.03,0
0.08,0,-0.02,0.21,-0.02,-0.03,0
0.08,0,-0.02,0.21,-0.01,-0.02,0
0.08,0,-0.02,0.21,-0.01,-0.03,0
0.08,0,-0.01,0.22,-0.01,-0.03,0
0.081,-0.01,-0.01,0.22,-0.01,-0.03,0
0.081,-0.01,-0.01,0.22,-0.01,-0.03,0
0.082,-0.01,-0.01,0.22,-0.01,-0.02,0
0.084,-0.01,-0.01,0.22,-0.01,-0.02,0
0.087,-0.01,-0.01,0.22,-0.01,-0.02,0
0.088,0,-0.01,0.23,-0.01,-0.02,0
0.088,0,-0.01,0.23,-0.01,-0.01,0
0.09,0,-0.01,0.23,-0.01,-0.01,0
0.092,0,-0.01,0.23,0,-0.01,0
0.094,0,-0.01,0.23,0,-0.01,0
0.102,0,-0.01,0.23,0,-0.01,0
0.103,0,-0.01,0.24,0,-0.01,0
0.103,0,-0.01,0.24,0,0,0
0.103,0,-0.01,0.24,0,0,0
0.103,0,-0.01,0.24,0,0,0
0.104,0,-0.01,0.24,0,0.01,0
0.12,0,-0.01,0.24,0,0.01,0
0.12,0,-0.01,0.24,0.01,0.01,0
0.121,0,-0.01,0.24,0.01,0.01,0
0.121,0,-0.01,0.24,0.01,0.01,0
0.121,0,-0.01,0.24,0.01,0.01,0
0.121,0,-0.01,0.24,0.01,0.01,0
0.121,0,-0.01,0.24,0.01,0.01,0
0.121,0,-0.02,0.22,0.01,0.01,0
0.122,0,-0.02,0.22,0.01,0.01,0
0.122,0,-0.02,0.22,0.01,0.01,0
0.122,0,-0.02,0.22,0.01,0.01,0
0.124,0,-0.02,0.22,0.01,0.01,0
0.127,0,-0.02,0.22,0.01,0.01,0
0.127,0,-0.02,0.22,0.01,0.01,0
0.129,0,-0.02,0.22,0.01,0.01,0
0.131,0,-0.02,0.22,0,0.01,0
0.132,0,-0.02,0.22,0,0.01,0
0.134,0,-0.02,0.22,0.01,0.01,0
0.137,0,-0.02,0.22,0,0.01,0
0.137,0,-0.02,0.22,0,0.01,0
0.138,0,-0.02,0.22,0,0,0
0.14,0,-0.02,0.22,0,0,0
0.142,0,-0.02,0.22,0,0,0
0.144,0,-0.02,0.22,0,0,0
0.159,0,-0.02,0.22,0,0,0
0.16,0,-0.02,0.22,0,-0.01,0
0.16,0,-0.02,0.22,0,-0.01,0
0.16,0,-0.02,0.22,0,-0.01,0
0.16,0,-0.02,0.22,0,-0.01,0
0.16,0,-0.02,0.22,0,-0.01,0
0.161,0,-0.02,0.22,0,-0.01,0
0.161,0,-0.02,0.23,0,-0.01,0
0.161,0,-0.02,0.23,0,-0.01,0
0.161,0,-0.02,0.23,0,-0.01,0
0.161,0,-0.02,0.23,-0.01,-0.01,0
0.169,0,-0.02,0.23,0,-0.01,0
0.172,0,-0.02,0.23,0,0,0
0.172,0,-0.02,0.23,0,-0.01,0
0.172,0,-0.02,0.23,0,-0.01,0
0.173,0,-0.02,0.23,0,-0.01,0
0.173,0,-0.02,0.23,0,-0.01,0
0.173,0,-0.02,0.23,0,-0.01,0
0.174,0,-0.02,0.23,0,-0.01,0
0.177,0,-0.02,0.23,0,0,0
0.177,0,-0.02,0.23,0,0,0
0.179,0,-0.02,0.23,0,0,0
0.18,0,-0.02,0.23,0,0,0
0.183,0,-0.02,0.23,0,0,0
0.185,0,-0.02,0.23,0,0,0
0.199,0,-0.02,0.23,0,0,0
0.199,0,-0.02,0.23,0,0,0
0.199,0,-0.02,0.23,0,0,0
0.199,0,-0.02,0.23,0,0,0
0.199,0,-0.02,0.23,0,0,0
0.2,0,-0.02,0.23,0,0,0
0.2,0,-0.02,0.23,0,0,0
0.2,-0.01,-0.01,0.23,0,0,0
0.2,-0.01,-0.01,0.23,0,0,0
0.2,-0.01,-0.01,0.23,0,0,0
0.202,-0.01,-0.01,0.23,0,0.01,0
0.204,-0.01,-0.01,0.23,0,0,0
0.207,-0.01,-0.01,0.23,0,0,0
0.208,0,-0.01,0.24,0,0,0
0.208,0,-0.01,0.24,0,0,0
0.21,0,-0.01,0.24,0,0,0
0.212,0,-0.01,0.24,0,0,0
0.214,0,-0.01,0.24,0,0,0
0.217,0,-0.01,0.24,0,0,0
0.217,0,-0.01,0.24,0,0,0
0.218,0,-0.01,0.24,0,0,0
0.22,0,-0.01,0.24,0,0,0
0.222,0,-0.01,0.24,0,0,0
0.224,0,-0.01,0.24,0,0,0
0.239,0,-0.01,0.24,0,0,0
0.239,0,-0.01,0.24,0,0,0
0.239,0,-0.01,0.24,0,0,0
0.24,0,-0.01,0.24,0,0,0
0.24,0,-0.01,0.24,0,0,0
0.24,0,-0.01,0.24,0,0,0
0.24,0,-0.01,0.24,0,0,0
0.24,0.01,-0.01,0.23,0,0,0
0.241,0.01,-0.01,0.23,0,0,0
0.241,0.01,-0.01,0.23,0,0,0
0.242,0.01,-0.01,0.23,0,0,0
0.244,0.01,-0.01,0.23,0,0,0
0.247,0.01,-0.01,0.23,0,0,0
0.247,0.01,-0.01,0.22,0,0,0
0.248,0.01,-0.01,0.22,0,0,0
0.25,0.01,-0.01,0.22,0,0,0
0.252,0.01,-0.01,0.22,0,0,0
0.254,0.01,-0.01,0.22,0,0,0
0.257,0.01,-0.01,0.22,0,0,0
0.257,0.01,-0.01,0.22,0,0,0
0.258,0.01,-0.01,0.22,0,0,0
0.26,0.01,-0.01,0.22,0,0,0
0.262,0.01,-0.01,0.22,0,0,0
0.264,0.01,-0.01,0.22,0,0,0
0.279,0.01,-0.01,0.22,0,0,0
0.279,0.01,-0.01,0.22,0,0,0
0.28,0.01,-0.01,0.22,0,0,0
0.28,0.01,-0.01,0.22,0,0,0
0.28,0.01,-0.01,0.22,0,0,0
0.28,0.01,-0.01,0.22,0,0,0
0.28,0.01,-0.01,0.22,0,0,0
0.281,0.01,-0.02,0.22,0,0,0
0.281,0.01,-0.02,0.22,0,0,0
0.281,0.01,-0.02,0.22,0,0,0
0.281,0.01,-0.02,0.22,0,0,0
0.282,0.01,-0.02,0.22,0,0,0
0.284,0.01,-0.02,0.22,0,0,0
0.287,0.01,-0.02,0.22,0,0,0
0.287,0.01,-0.02,0.22,0,0,0
0.288,0.01,-0.02,0.22,0,0,0
0.29,0.01,-0.02,0.22,0,0,0
0.292,0.01,-0.02,0.22,0,0,0
0.294,0.01,-0.02,0.22,0,0,0
0.298,0.01,-0.02,0.22,0,0,0
0.298,0,-0.02,0.22,0,0,0
0.299,0,-0.02,0.22,0,0,0
0.301,0,-0.02,0.22,0,0,0
0.302,0,-0.02,0.22,0,0,0
0.304,0,-0.02,0.22,0,0,0
0.32,0,-0.02,0.22,0,0,0
0.32,0,-0.02,0.22,0,0,0
0.321,0,-0.02,0.22,0,0,0
0.321,0,-0.02,0.22,0,0,0
0.321,0,-0.02,0.22,0,0,0
0.321,0,-0.02,0.22,0,0,0
0.321,0,-0.02,0.22,0,0,0
0.321,0.01,-0.02,0.23,0,0,0
0.321,0.01,-0.02,0.23,0,0,0
0.321,0.01,-0.02,0.23,0,0,0
0.322,0.01,-0.02,0.23,0,0,0
0.324,0.01,-0.02,0.23,0,0,0
0.327,0.01,-0.02,0.23,0,0,0
0.328,0.01,-0.02,0.23,0,0,0
0.33,0.01,-0.02,0.23,0,0,0
0.331,0.01,-0.02,0.23,0,0,0
0.332,0.01,-0.02,0.23,0,0,0
0.334,0.01,-0.02,0.23,0,0,0
0.337,0.01,-0.02,0.23,0,0,0
0.337,0.01,-0.02,0.23,0,0,0
0.338,0.01,-0.02,0.23,0,0,0
0.34,0.01,-0.02,0.23,0,0,0
0.341,0.01,-0.02,0.23,0,0,0
0.344,0.01,-0.02,0.23,0,0,0
0.359,0.01,-0.02,0.23,0,0,0
0.36,0.01,-0.02,0.23,0,0,0
0.36,0.01,-0.02,0.23,0,0,0
0.36,0.01,-0.02,0.23,0,0,0
0.36,0.01,-0.02,0.23,0,0,0
0.36,0.01,-0.02,0.23,0,0,0
0.361,0.01,-0.02,0.23,0,0,0
0.361,0.01,-0.01,0.23,0,0,0
0.361,0.01,-0.01,0.23,0,0,0
0.361,0.01,-0.01,0.23,0,0,0
0.371,0.01,-0.01,0.23,0,0,0
0.371,0.01,-0.01,0.23,0,0,0
0.371,0.01,-0.01,0.23,0,0,0
0.372,0.01,-0.01,0.22,0,0,0
0.372,0.01,-0.01,0.22,0,0,0
0.372,0.01,-0.01,0.22,0,0,0
0.372,0.01,-0.01,0.22,0,0,0
0.374,0.01,-0.01,0.22,0,0,0
0.377,0.01,-0.01,0.22,0,0,0
0.377,0.01,-0.01,0.22,0,0,0
0.378,0.01,-0.01,0.22,0,0,0
0.38,0.01,-0.01,0.22,0,0,0
0.382,0.01,-0.01,0.22,0,0,0
0.384,0.01,-0.01,0.22,0,0,0
0.4,0.01,-0.01,0.22,0,0,0
0.401,0.01,-0.01,0.22,0,-0.01,0
0.401,0.01,-0.01,0.22,0,-0.01,0
0.401,0.01,-0.01,0.22,0,0,0
0.402,0.01,-0.01,0.22,0,0,0
0.402,0.01,-0.01,0.22,0,0,0
0.402,0.01,-0.01,0.22,0,0,0
0.402,0.01,-0.01,0.22,0,0,0
0.402,0.01,-0.02,0.22,0,0,0
0.402,0.01,-0.02,0.22,0,0,0
0.403,0.01,-0.02,0.22,0,0,0
0.403,0.01,-0.02,0.22,0,0,0
0.404,0.01,-0.02,0.22,0,0,0
0.408,0.01,-0.02,0.22,0,0,0
0.408,0.01,-0.02,0.22,0,0,0
0.408,0.01,-0.02,0.23,0,0,0
0.41,0.01,-0.02,0.23,0,0,0
0.412,0.01,-0.02,0.23,0,0,0
0.414,0.01,-0.02,0.23,0,0,0
0.417,0.01,-0.02,0.23,0,0,0
0.417,0.01,-0.02,0.22,0,0,0
0.418,0.01,-0.02,0.22,0,0,0
0.42,0.01,-0.02,0.22,0,0,0
0.422,0.01,-0.02,0.22,0,0,0
0.424,0.01,-0.02,0.22,0,0,0
0.439,0.01,-0.02,0.22,0,0,0
0.44,0.01,-0.02,0.22,0,0,0
0.44,0.01,-0.02,0.22,0,0,0
0.44,0.01,-0.02,0.22,0,0,0
0.44,0.01,-0.02,0.22,0,0,0
0.44,0.01,-0.02,0.22,0,0,0
0.44,0.01,-0.02,0.22,0,0,0
0.441,0.01,-0.01,0.22,0,0,0
0.441,0.01,-0.01,0.22,0,0,0
0.441,0.01,-0.01,0.22,0,0,0
0.442,0.01,-0.01,0.22,0,0,0
0.444,0.01,-0.01,0.22,0,0,0
0.448,0.01,-0.01,0.22,0,0,0
0.449,0.01,-0.01,0.22,0,0,0
0.449,0.01,-0.01,0.22,0,0,0
0.45,0.01,-0.01,0.22,0,0,0
0.452,0.01,-0.01,0.22,0,0,0
0.454,0.01,-0.01,0.22,0,0,0
0.457,0.01,-0.01,0.22,0,0,0
0.457,0.01,-0.01,0.22,0,0,0
0.458,0.01,-0.01,0.22,0,0,0
0.46,0.01,-0.01,0.22,0,0,0
0.463,0.01,-0.01,0.22,0,0,0
0.464,0.01,-0.01,0.22,0,0,0
0.479,0.01,-0.01,0.22,0,0,0
0.48,0.01,-0.01,0.22,0,0,0
0.48,0.01,-0.01,0.22,0,0,0
0.48,0.01,-0.01,0.22,0,0,0
0.48,0.01,-0.01,0.22,0,0,0
0.48,0.01,-0.01,0.22,0,0,0
0.481,0.01,-0.01,0.22,0,0,0
0.481,0,-0.02,0.23,0,0,0
0.481,0,-0.02,0.23,0,0,0
0.481,0,-0.02,0.23,0,0,0
0.483,0,-0.02,0.23,0,0,0
0.484,0,-0.02,0.23,0,0,0
0.488,0,-0.02,0.23,0,0,0
0.488,0,-0.02,0.22,0,0,0
0.488,0,-0.02,0.22,0,0,0
0.49,0,-0.02,0.22,0,0,0
0.492,0,-0.02,0.22,0,0,0
0.495,0,-0.02,0.22,0,0,0
0.499,0,-0.02,0.22,0,0,0
0.5,0,-0.02,0.23,0,0,0
0.5,0,-0.02,0.23,0,0,0
0.5,0,-0.02,0.23,0,0,0
0.503,0,-0.02,0.23,0,0,0
0.504,0,-0.02,0.23,0,0,0
0.52,0,-0.02,0.23,0,0,0
0.52,0,-0.02,0.23,0,0,0
0.521,0,-0.02,0.23,0,0,0
0.521,0,-0.02,0.23,0,0,0
0.521,0,-0.02,0.23,0,0,0
0.521,0,-0.02,0.23,0,0,0
0.521,0,-0.02,0.23,0,0,0
0.521,0,-0.01,0.23,0,0,0
0.521,0,-0.01,0.23,0,0,0
0.522,0,-0.01,0.23,0,0,0
0.523,0,-0.01,0.23,0,0,0
0.524,0,-0.01,0.23,0,0,0
0.528,0,-0.01,0.23,0,0,0
0.528,0.01,-0.01,0.23,0,0,0
0.528,0.01,-0.01,0.23,0,0,0
0.53,0.01,-0.01,0.23,0,0,0
0.532,0.01,-0.01,0.23,0,0,0
0.534,0.01,-0.01,0.23,0,0,0
0.537,0.01,-0.01,0.23,0,0,0
0.537,0.01,-0.01,0.23,0,0,0
0.538,0.01,-0.01,0.23,0,0,0
0.54,0.01,-0.01,0.23,0,0,0
0.542,0.01,-0.01,0.23,0,0,0
0.544,0.01,-0.01,0.23,0,0,0
0.559,0.01,-0.01,0.23,0,0,0
0.56,0.01,-0.01,0.23,0,0,0
0.56,0.01,-0.01,0.23,0,0,0
0.56,0.01,-0.01,0.23,0,0,0
0.56,0.01,-0.01,0.23,0,0,0
0.56,0.01,-0.01,0.23,0,0,0
0.56,0.01,-0.01,0.23,0,0,0
0.561,0.01,-0.01,0.22,0,0,0
0.561,0.01,-0.01,0.22,0,0,0
0.561,0.01,-0.01,0.22,0,0,0
0.566,0.01,-0.01,0.22,0,0,0
0.566,0.01,-0.01,0.22,0,0,0
0.569,0.01,-0.01,0.22,0,0,0
0.569,0.01,-0.01,0.22,0,0,0
0.569,0.01,-0.01,0.22,0,0,0
0.57,0.01,-0.01,0.22,0,0,0
0.573,0.01,-0.01,0.22,0,0,0
0.574,0.01,-0.01,0.22,0,0,0
0.577,0.01,-0.01,0.22,0,0,0
0.577,0.01,-0.01,0.22,0,0,0
0.578,0.01,-0.01,0.22,0,0,0
0.58,0.01,-0.01,0.22,0,0,0
0.582,0.01,-0.01,0.22,0,0,0
0.584,0.01,-0.01,0.22,0,0,0
0.604,0.01,-0.01,0.22,0,0,0
0.605,0.01,-0.01,0.22,0,0,0
0.605,0.01,-0.01,0.22,0,0,0
0.605,0.01,-0.01,0.22,0,0,0
0.606,0.01,-0.01,0.22,0,0,0
0.606,0.01,-0.01,0.22,0,0,0
0.606,0.01,-0.01,0.22,0,0,0
0.606,0.01,-0.01,0.22,0,0,0
0.606,0.01,-0.01,0.22,0,0,0
0.606,0.01,-0.01,0.22,0,0,0
0.607,0,-0.02,0.21,0,0,0
0.607,0.01,-0.02,0.21,0,0,0
0.609,0.01,-0.02,0.21,0,0,0
0.609,0.01,-0.02,0.21,0,0,0
0.609,0.01,-0.02,0.22,0,0,0
0.61,0.01,-0.02,0.22,0,0,0
0.616,0.01,-0.02,0.22,0,0,0
0.617,0.01,-0.02,0.22,0,0,0
0.617,0.01,-0.02,0.22,0,0,0
0.617,0,-0.01,0.22,0,0,0
0.618,0,-0.01,0.22,0,0,0
0.62,0,-0.01,0.22,0,0,0
0.622,0,-0.01,0.22,0,0,0
0.624,0,-0.01,0.22,0,0,0
0.64,0,-0.01,0.22,0,0,0
0.641,0,-0.01,0.22,0,0,0
0.641,0,-0.01,0.22,0,0,0
0.641,0,-0.01,0.22,0,0,0
0.642,0,-0.01,0.22,0,0,0
0.642,0,-0.01,0.22,0,0,0
0.642,0,-0.01,0.22,0,0,0
0.642,0,0,0.22,0,0,0
0.642,0,0,0.22,0,0,0
0.643,0,0,0.22,0,0,0
0.643,0,0,0.22,0,0,0
0.643,0,0,0.22,0,0,0
0.644,0,0,0.22,0,0,0
0.648,0,0,0.22,0,0,0
0.648,0.01,0,0.22,0,0,0
0.649,0.01,0,0.22,0,0,0
0.65,0.01,0,0.22,0,0,0
0.652,0.01,0,0.22,0,0,0
0.654,0.01,0,0.22,0,0,0
0.657,0.01,0,0.22,0,0,0
0.657,0.01,-0.01,0.22,0,0,0
0.66,0.01,-0.01,0.22,0,0,0
0.66,0.01,-0.01,0.22,0,0,0
0.663,0.01,-0.01,0.22,0,0,0
0.664,0.01,-0.01,0.22,0,0,0
0.68,0.01,-0.01,0.22,0,0,0
0.681,0.01,-0.01,0.22,0,0,0
0.681,0.01,-0.01,0.22,0,0,0
0.681,0.01,-0.01,0.22,0,0,0
0.682,0.01,-0.01,0.22,0,0,0
0.682,0.01,-0.01,0.22,0,0,0
0.682,0.01,-0.01,0.22,0,0,0
0.682,0.01,-0.01,0.22,0,0,0
0.683,0.01,-0.01,0.22,0,0,0
0.683,0.01,-0.01,0.22,0,0,0
0.683,0.01,-0.01,0.22,0,0,0
0.685,0.01,-0.01,0.22,0,0,0
0.687,0.01,-0.01,0.22,0,0,0
0.688,0.01,-0.01,0.23,0,0,0
0.688,0.01,-0.01,0.23,0,0,0
0.69,0.01,-0.01,0.23,0,0,0
0.692,0.01,-0.01,0.23,0,0,0
0.694,0.01,-0.01,0.23,0,0,0
0.703,0.01,-0.01,0.23,0,0,0
0.703,0.01,-0.01,0.23,0,0,0
0.704,0.01,-0.01,0.23,0,0,0
0.704,0.01,-0.01,0.23,0,0,0
0.704,0.01,-0.01,0.23,0,0,0
0.705,0.01,-0.01,0.23,0,0.01,0
0.721,0.01,-0.01,0.23,0,0,0
0.722,0.01,-0.01,0.23,0,0,0
0.722,0.01,-0.01,0.23,0,0,0
0.722,0.01,-0.01,0.23,0,0,0
0.722,0.01,-0.01,0.23,0,0,0
0.723,0.01,-0.01,0.23,0,0,0
0.723,0.01,-0.01,0.23,0,0,0
0.723,0.01,-0.01,0.23,0,0,0
0.724,0.01,-0.02,0.23,0,0,0
0.724,0.01,-0.02,0.23,0,0,0
0.724,0.01,-0.02,0.23,0,0,0
0.724,0.01,-0.02,0.23,0,0,0
0.724,0.01,-0.02,0.23,0,0,0
0.731,0.01,-0.02,0.23,0,0,0
0.732,0.01,-0.02,0.23,0,0,0
0.732,0.01,-0.02,0.23,0,0,0
0.733,0.01,-0.02,0.23,0,0,0
0.733,0.01,-0.02,0.23,0,0,0
0.736,0.01,-0.02,0.23,0,0,0
0.737,0.01,-0.02,0.23,0,0,0
0.737,0,-0.01,0.23,0,0,0
0.738,0,-0.01,0.23,0,0,0
0.74,0,-0.01,0.23,0,0,0
0.742,0,-0.01,0.23,0,0,0
0.744,0,-0.01,0.23,0,0,0
0.76,0,-0.01,0.23,0,0,0
0.761,0,-0.01,0.23,0,0,0
0.761,0,-0.01,0.23,0,0,0
0.761,0,-0.01,0.23,0,0,0
0.762,0,-0.01,0.23,0,0,0
0.762,0,-0.01,0.23,0,0,0
0.762,0,-0.01,0.23,0,0,0
0.762,0,-0.01,0.23,0,0,0
0.763,0.01,-0.01,0.23,0,0,0
0.763,0.01,-0.01,0.23,0,0,0
0.764,0.01,-0.01,0.23,0,0,0
0.764,0.01,-0.01,0.23,0,0,0
0.772,0.01,-0.01,0.23,0,0,0
0.773,0.01,-0.01,0.23,0,0,0
0.773,0.01,-0.01,0.23,0,0,0
0.773,0.01,-0.01,0.23,0,0,0
0.773,0.01,-0.01,0.23,0,0,0
0.778,0.01,-0.01,0.23,0,0,0
0.779,0.01,-0.01,0.23,0,0,0
0.779,0.01,-0.01,0.23,0,0,0
0.779,0.01,-0.01,0.23,0,0,0
0.783,0.01,-0.01,0.23,0,0,0
0.784,0.01,-0.01,0.23,0,0,0
0.784,0.01,-0.01,0.23,0,0,0
0.8,0.01,-0.01,0.23,0,0,0
0.801,0.01,-0.01,0.23,0,0,0
0.801,0.01,-0.01,0.23,0,0,0
0.801,0.01,-0.01,0.23,0,0,0
0.801,0.01,-0.01,0.23,0,0,0
0.801,0.01,-0.01,0.23,0,0.01,0
0.802,0.01,-0.01,0.23,0,0.01,0
0.802,0.01,-0.01,0.23,0,0.01,0
0.802,0.01,-0.01,0.23,0,0.01,0
0.802,0.01,-0.01,0.23,0,0.01,0
0.803,0.01,-0.01,0.23,0,0,0
0.803,0.01,-0.01,0.23,0,0,0
0.805,0.01,-0.01,0.23,0,0,0
0.808,0.01,-0.01,0.23,0,0,0
0.808,0.01,-0.01,0.23,0,0,0
0.809,0.01,-0.01,0.23,0,0,0
0.81,0.01,-0.01,0.23,0,0,0
0.812,0.01,-0.01,0.23,0,0.01,0
0.814,0.01,-0.01,0.23,0,0,0
0.818,0.01,-0.01,0.23,0,0,0
0.818,0.01,-0.01,0.22,0,0,0
0.818,0.01,-0.01,0.22,0,0,0
0.821,0.01,-0.01,0.22,0,0,0
0.824,0.01,-0.01,0.22,0,0,0
0.825,0.01,-0.01,0.22,0,0,0
0.839,0.01,-0.01,0.22,0,0,0
0.84,0.01,-0.01,0.22,0,0,0
0.84,0.01,-0.01,0.22,0,0,0
0.84,0.01,-0.01,0.22,0,0,0
0.841,0.01,-0.01,0.22,0,0,0
0.841,0.01,-0.01,0.22,0,0,0
0.841,0.01,-0.01,0.22,0,0,0
0.841,0,-0.02,0.22,0,0,0
0.841,0,-0.02,0.22,0,0,0
0.842,0,-0.02,0.22,0,0,0
0.842,0,-0.02,0.22,0,0,0
0.844,0,-0.02,0.22,0,0,0
0.848,0,-0.02,0.22,0,0,0
0.849,0,-0.02,0.22,0,-0.01,0
0.849,0.01,-0.02,0.22,0,-0.01,0
0.852,0.01,-0.02,0.22,0,0,0
0.853,0.01,-0.02,0.22,0,0,0
0.854,0.01,-0.02,0.22,0,0,0
0.857,0.01,-0.02,0.22,0,0,0
0.858,0.01,-0.02,0.23,0,0,0
0.859,0.01,-0.02,0.23,0,0,0
0.861,0.01,-0.02,0.23,0,0,0
0.862,0.01,-0.02,0.23,0,0,0
0.865,0.01,-0.02,0.23,0,0,0
0.885,0.01,-0.02,0.23,0,0,0
0.886,0.01,-0.02,0.23,0,0,0
0.886,0.01,-0.02,0.23,0,0,0
0.886,0.01,-0.02,0.23,0,0,0
0.887,0.01,-0.02,0.23,0,0,0
0.887,0.01,-0.02,0.23,0,0,0
0.887,0.01,-0.02,0.23,0,0,0
0.888,0.01,-0.02,0.23,0,0,0
0.888,0.01,-0.02,0.23,0,0,0
0.888,0.01,-0.02,0.23,0,0,0
0.888,0.01,-0.02,0.23,0,0,0
0.889,0.01,-0.02,0.23,0,0,0
0.889,0.01,-0.02,0.23,0,0,0
0.889,0.01,-0.02,0.23,0,0,0
0.89,0.01,-0.02,0.23,0,0,0
0.89,0.01,-0.02,0.23,0,0,0
0.892,0.01,-0.02,0.23,0,0,0
0.894,0.01,-0.02,0.23,0,0,0
0.897,0.01,-0.02,0.23,0,0,0
0.898,0.01,-0.01,0.23,0,0,0
0.898,0.01,-0.01,0.23,0,0,0
0.901,0.01,-0.01,0.23,0,0,0
0.902,0.01,-0.01,0.23,0,0,0
0.904,0.01,-0.01,0.23,0,0,0
0.92,0.01,-0.01,0.23,0,0,0
0.921,0.01,-0.01,0.23,0,0,0
0.921,0.01,-0.01,0.23,0,0,0
0.921,0.01,-0.01,0.23,0,0,0
0.921,0.01,-0.01,0.23,0,0,0
0.922,0.01,-0.01,0.23,0,0,0
0.922,0.01,-0.01,0.23,0,0,0
0.922,0,-0.01,0.23,0,0,0
0.923,0,-0.01,0.23,0,0,0
0.923,0,-0.01,0.23,0,0,0
0.923,0,-0.01,0.23,0,0,0
0.924,0,-0.01,0.23,0,0,0
0.927,0,-0.01,0.23,0,0,0
0.928,0,-0.02,0.23,0,0,0
0.928,0,-0.02,0.23,0,0,0
0.934,0,-0.02,0.23,0,0,0
0.935,0,-0.02,0.23,0,0,0
0.935,0,-0.02,0.23,0,0,0
0.937,0,-0.02,0.23,0,0,0
0.938,0,-0.02,0.23,0,0,0
0.938,0,-0.02,0.23,0,0,0
0.94,0,-0.02,0.23,0,0,0
0.942,0,-0.02,0.23,0,0,0
0.944,0,-0.02,0.23,0,0,0
0.96,0,-0.02,0.23,0,0,0
0.961,0,-0.02,0.23,0,0,0
0.961,0,-0.02,0.23,0,0,0
0.961,0,-0.02,0.23,0,0,0
0.962,0,-0.02,0.23,0,0,0
0.962,0,-0.02,0.23,0,0,0
0.963,0,-0.02,0.23,0,0,0
0.963,0,-0.02,0.23,0,0,0
0.963,0,-0.02,0.23,0,0,0
0.964,0,-0.02,0.23,0,0,0
0.964,0,-0.02,0.23,0,0,0
0.965,0,-0.02,0.23,0,0,0
0.971,0,-0.02,0.23,0,0,0
0.971,0.01,-0.02,0.22,0,0,0
0.971,0.01,-0.02,0.22,0,0,0
0.972,0.01,-0.02,0.22,0,0,0
0.972,0.01,-0.02,0.22,0,0,0
0.974,0.01,-0.02,0.22,0,0,0
0.977,0.01,-0.02,0.22,0,0,0
0.978,0.01,-0.02,0.23,0,0,0
0.978,0.01,-0.02,0.23,0,0,0
0.982,0.01,-0.02,0.23,0,0,0
0.982,0.01,-0.02,0.23,0,0,0
0.985,0.01,-0.02,0.23,0,0,0
1.001,0.01,-0.02,0.23,0,0,0
1.002,0.01,-0.02,0.23,0,0,0
1.006,0.01,-0.02,0.23,0,0,0
1.006,0.01,-0.02,0.23,0,0,0
1.006,0.01,-0.02,0.23,0,0,0
1.007,0.01,-0.02,0.23,0,0,0
1.007,0.01,-0.02,0.23,0,0,0
1.007,0.01,-0.02,0.23,0,0,0
1.008,0.01,-0.01,0.22,0,0,0
1.008,0.01,-0.01,0.22,0,0,0
1.008,0.01,-0.01,0.22,0,0,0
1.009,0.01,-0.01,0.22,0,0,0
1.009,0.01,-0.01,0.22,0,0,0
1.009,0.01,-0.01,0.22,0,0,0
1.01,0.01,-0.01,0.22,0,0,0
1.01,0.01,-0.01,0.22,0,0,0
1.012,0.01,-0.01,0.22,0,0,0
1.018,0.01,-0.01,0.22,0,0,0
1.019,0.01,-0.01,0.22,0,0,0
1.019,0.01,-0.02,0.22,0,0,0
1.019,0.01,-0.02,0.22,0,0,0
1.02,0.01,-0.02,0.22,0,0,0
1.022,0.01,-0.02,0.22,0,0,0
1.023,0.01,-0.02,0.22,0,0,0
1.04,0.01,-0.02,0.22,0,0,0
1.04,0.01,-0.02,0.22,0,0,0
1.04,0.01,-0.02,0.22,0,0,0
1.041,0.01,-0.02,0.22,0,0,0
1.041,0.01,-0.02,0.22,0,0,0
1.041,0.01,-0.02,0.22,0,0,0
1.041,0.01,-0.02,0.22,0,0,0
1.041,0.01,-0.03,0.22,0,0,0
1.042,0.01,-0.03,0.22,0,0,0
1.042,0.01,-0.03,0.22,0,0,0
1.042,0.01,-0.03,0.22,0,0,0
1.044,0.01,-0.03,0.22,0,0,0
1.051,0.01,-0.03,0.22,0,0,0
1.051,0.01,-0.03,0.22,0,0,0
1.052,0.01,-0.03,0.22,0,0,0
1.052,0.01,-0.03,0.22,0,0,0
1.052,0.01,-0.03,0.22,0,0,0
1.054,0.01,-0.03,0.22,0,0,0
1.058,0.01,-0.03,0.22,0,0,0
1.058,0.01,-0.02,0.23,0,0,0
1.058,0.01,-0.02,0.23,0,0,0
1.061,0.01,-0.02,0.23,0,0,0
1.064,0.01,-0.02,0.23,0,0,0
1.067,0.01,-0.02,0.23,0,0,0
1.079,0.01,-0.02,0.23,0,0,0
1.08,0.01,-0.02,0.23,0,0,0
1.08,0.01,-0.02,0.23,0,0,0
1.08,0.01,-0.02,0.23,0,0,0
1.08,0.01,-0.02,0.23,0,0,0
1.08,0.01,-0.02,0.23,0,0,0
1.081,0.01,-0.02,0.23,0,0,0
1.081,0,-0.02,0.22,0,0,0
1.081,0,-0.02,0.22,0,0,0
1.081,0,-0.02,0.22,0,0,0
1.083,0,-0.02,0.22,0,0,0
1.084,0,-0.02,0.22,0,0,0
1.088,0,-0.02,0.22,0,0,0
1.088,0,-0.02,0.22,0,0,0
1.088,0,-0.02,0.22,0,0,0
1.09,0,-0.02,0.22,0,0,0
1.092,0,-0.02,0.22,0,0,0
1.094,0,-0.02,0.22,0,0,0
1.103,0,-0.02,0.22,0,0,0
1.104,0.01,-0.02,0.22,0,0,0
1.104,0.01,-0.02,0.22,0,0,0
1.104,0.01,-0.02,0.22,0,0,0
1.104,0.01,-0.02,0.22,0,0,0
1.105,0.01,-0.02,0.22,0,0,0
1.121,0.01,-0.02,0.22,0,0,0
1.122,0.01,-0.02,0.22,0,0,0
1.122,0.01,-0.02,0.22,0,0,0
1.123,0.01,-0.02,0.22,0,0,0
1.123,0.01,-0.02,0.22,0,0,0
1.123,0.01,-0.02,0.22,0,0,0
1.123,0.01,-0.02,0.22,0,0,0
1.123,0.01,-0.02,0.22,0,0,0
1.123,0.01,-0.02,0.21,0,0,0
1.124,0.01,-0.02,0.21,0,0,0
1.124,0.01,-0.02,0.21,0,0,0
1.126,0.01,-0.02,0.21,0,0,0
1.126,0.01,-0.02,0.21,0,0,0
1.128,0.01,-0.02,0.21,0,0,0
1.128,0.01,-0.02,0.21,0,0,0
1.128,0.01,-0.02,0.21,0,0,0
1.132,0.01,-0.02,0.21,0,0,0
1.133,0.01,-0.02,0.21,0,0,0
1.134,0.01,-0.02,0.21,0,0,0
1.138,0.01,-0.02,0.21,0,0,0
1.138,0.01,-0.02,0.21,0,0,0
1.138,0.01,-0.02,0.21,0,0,0
1.14,0.01,-0.02,0.21,0,0,0
1.144,0.01,-0.02,0.21,0,0,0
1.144,0.01,-0.02,0.21,0,0,0
1.159,0.01,-0.02,0.21,0,0,0
1.16,0.01,-0.02,0.21,0,0,0
1.16,0.01,-0.02,0.21,0,0,0
1.16,0.01,-0.02,0.21,0,0,0
1.16,0.01,-0.02,0.21,0,0,0
1.165,0.01,-0.02,0.21,0,0,0
1.165,0.01,-0.02,0.21,0,0,0
1.166,0,-0.02,0.22,0,0,0
1.166,0,-0.02,0.22,0,0,0
1.167,0,-0.02,0.22,0,0,0
1.167,0,-0.02,0.22,0,0,0
1.168,0,-0.02,0.22,0,0,0
1.173,0,-0.02,0.22,0,0,0
1.173,0,-0.02,0.22,0,0,0
1.173,0.01,-0.01,0.23,0,0,0
1.174,0.01,-0.01,0.23,0,0,0
1.174,0.01,-0.01,0.23,0,0,0
1.174,0.01,-0.01,0.23,0,0,0
1.178,0.01,-0.01,0.23,0,0,0
1.178,0,-0.01,0.23,0,0,0
1.178,0,-0.01,0.23,0,0,0
1.182,0,-0.01,0.23,0,0,0
1.183,0,-0.01,0.23,0,0,0
1.185,0,-0.01,0.23,0,0,0
1.2,0,-0.01,0.23,0,0,0
1.2,0,-0.01,0.23,0,0,0
1.2,0,-0.01,0.23,0,0,0
1.201,0,-0.01,0.23,0,0,0
1.201,0,-0.01,0.23,0,0,0
1.201,0,-0.01,0.23,0,0,0
1.201,0,-0.01,0.23,0,0,0
1.202,0.01,-0.01,0.23,0,0,0
1.203,0.01,-0.01,0.23,0,0,0
1.203,0.01,-0.01,0.23,0,0,0
1.203,0.01,-0.01,0.23,0,0,0
1.203,0.01,-0.01,0.23,0,0,0
1.204,0.01,-0.01,0.23,0,0,0
1.208,0.01,-0.01,0.23,0,0,0
1.208,0.01,-0.02,0.22,0,0,0
1.208,0.01,-0.02,0.22,0,0,0
1.21,0.01,-0.02,0.22,0,0,0
1.213,0.01,-0.02,0.22,0,0,0
1.214,0.01,-0.02,0.22,0,0,0
1.218,0.01,-0.02,0.22,0,0,0
1.218,0.01,-0.02,0.22,0,0,0
1.218,0.01,-0.02,0.22,0,0,0
1.22,0.01,-0.02,0.22,0,0,0
1.223,0.01,-0.02,0.22,0,0,0
1.224,0.01,-0.02,0.22,0,0,0
1.24,0.01,-0.02,0.22,0,0,0
1.241,0.01,-0.02,0.22,0,0,0
1.241,0.01,-0.02,0.22,0,0,0
1.241,0.01,-0.02,0.22,0,0,0
1.242,0.01,-0.02,0.22,0,0,0
1.242,0.01,-0.02,0.22,0,0,0
1.242,0.01,-0.02,0.22,0,0,0
1.242,0.01,-0.01,0.23,0,0,0
1.242,0.01,-0.01,0.23,0,0,0
1.243,0.01,-0.01,0.23,0,0,0
1.243,0.01,-0.01,0.23,0,0,0
1.243,0.01,-0.01,0.23,0,0,0
1.244,0.01,-0.01,0.23,0,0,0
1.248,0.01,-0.01,0.23,0,0.01,0
1.248,0.01,-0.01,0.23,0,0.01,0
1.249,0.01,-0.01,0.23,0,0,0
1.252,0.01,-0.01,0.23,0,0,0
1.252,0.01,-0.01,0.23,0,0,0
1.254,0.01,-0.01,0.23,0,0,0
1.257,0.01,-0.01,0.23,0,0,0
1.257,0,-0.01,0.23,0,0,0
1.258,0,-0.01,0.23,0,0,0
1.26,0,-0.01,0.23,0,0,0
1.262,0,-0.01,0.23,0,0,0
1.264,0,-0.01,0.23,0,0,0
1.286,0,-0.01,0.23,0,0,0
1.286,0,-0.01,0.23,0,0,0
1.287,0,-0.01,0.23,0,0,0
1.287,0,-0.01,0.23,0,0,0
1.287,0,-0.01,0.23,0,0,0
1.287,0,-0.01,0.23,0,0,0
1.288,0,-0.01,0.23,0,0,0
1.288,0,-0.01,0.23,0,0,0
1.288,-0.01,-0.01,0.21,0,0,0
1.288,-0.01,-0.01,0.21,0,0,0
1.288,-0.01,-0.01,0.21,0,0,0
1.288,-0.01,-0.01,0.21,0,0,0
1.289,-0.01,-0.01,0.21,0,0,0
1.289,-0.01,-0.01,0.22,0,0,0
1.289,-0.01,-0.01,0.22,0,-0.01,0
1.291,-0.01,-0.01,0.22,0,0,0
1.292,-0.01,-0.01,0.22,0,0,0
1.294,-0.01,-0.01,0.22,0,0,0
1.301,-0.01,-0.01,0.22,0,0,0
1.302,-0.01,-0.01,0.22,0,0,0
1.302,-0.01,-0.01,0.22,0,0,0
1.302,-0.01,-0.01,0.22,0,0,0
1.305,-0.01,-0.01,0.22,0,0,0
1.305,-0.01,-0.01,0.22,0,0,0
1.32,-0.01,-0.01,0.22,0,0,0
1.321,-0.01,-0.01,0.22,0,0,0
1.321,-0.01,-0.01,0.22,0,0,0
1.322,-0.01,-0.01,0.22,0,0,0
1.322,-0.01,-0.01,0.22,0,0,0
1.322,-0.01,-0.01,0.22,0,0,0
1.322,-0.01,-0.01,0.22,0,0,0
1.326,0,-0.01,0.23,0,0,0
1.326,0,-0.01,0.23,0,0,0
1.326,0,-0.01,0.23,0,0,0
1.326,0,-0.01,0.23,0,0,0
1.327,0,-0.01,0.23,0,0,0
1.327,0,-0.01,0.23,0,0,0
1.327,0,-0.01,0.23,0,0,0
1.328,0,-0.01,0.23,0,0,0
1.331,0,-0.01,0.23,0,0,0
1.332,0,-0.01,0.23,0,0,0
1.336,0,-0.01,0.23,0,0,0
1.337,0,-0.01,0.23,0,0,0
1.337,0.01,-0.01,0.23,0,0,0
1.338,0.01,-0.01,0.23,0,0,0
1.34,0.01,-0.01,0.23,0,0,0
1.342,0.01,-0.01,0.23,0,0,0
1.344,0.01,-0.01,0.23,0,0,0
1.36,0.01,-0.01,0.23,0,0,0
1.361,0.01,-0.01,0.23,0,0,0
1.361,0.01,-0.01,0.23,0,0,0
1.361,0.01,-0.01,0.23,0,0,0
1.361,0.01,-0.01,0.23,0,0,0
1.362,0.01,-0.01,0.23,0,0,0
1.362,0.01,-0.01,0.23,0,0,0
1.362,0.01,-0.01,0.23,0,0,0
1.362,0.01,-0.01,0.23,0,0,0
1.363,0.01,-0.01,0.23,0,0,0
1.363,0.01,-0.01,0.23,0,0,0
1.363,0.01,-0.01,0.23,0,0,0
1.37,0.01,-0.01,0.23,0,0,0
1.37,0.01,-0.01,0.23,0,0,0
1.371,0,-0.01,0.23,0,0,0
1.371,0,-0.01,0.23,0,0,0
1.371,0,-0.01,0.23,0,0,0
1.375,0,-0.01,0.23,0,0,0
1.375,0,-0.01,0.23,0,0,0
1.377,0,-0.01,0.23,0,0,0
1.378,0,-0.01,0.23,0,0,0
1.379,0,-0.01,0.23,0,0,0
1.381,0,-0.01,0.23,0,0,0
1.383,0,-0.01,0.23,0,0,0
1.386,0,-0.01,0.23,0,0,0
1.398,0,-0.01,0.23,0,0,0
1.399,0,-0.01,0.23,0,0,0
1.399,0,-0.01,0.23,0,0,0
1.399,0,-0.01,0.23,0,0,0
1.399,0,-0.01,0.23,0,0,0
1.4,0,-0.01,0.23,0,0,0
1.4,0,-0.01,0.22,0,0,0
1.4,0,-0.01,0.22,0,0,0
1.4,0,-0.01,0.22,0,0,0
1.4,0,-0.01,0.22,0,0,0
1.403,0,-0.01,0.22,0,0,0
1.404,0,-0.01,0.22,0,0,0
1.407,0,-0.01,0.22,0,0,0
1.408,0.01,-0.01,0.22,0,0,0
1.408,0.01,-0.01,0.22,0,0,0
1.41,0.01,-0.01,0.22,0,0,0
1.415,0.01,-0.01,0.22,0,0,0
1.415,0.01,-0.01,0.22,0,0,0
1.418,0.01,-0.01,0.22,0,0,0
1.418,0.01,-0.01,0.22,0,0,0
1.419,0.01,-0.01,0.22,0,0,0
1.42,0.01,-0.01,0.22,0,0,0
1.422,0.01,-0.01,0.22,0,0,0
1.424,0.01,-0.01,0.22,0,0,0
1.44,0.01,-0.01,0.22,0,0,0
1.44,0.01,-0.01,0.22,0,0,0
1.441,0.01,-0.01,0.22,0,0,0
1.441,0.01,-0.01,0.22,0,0,0
1.441,0.01,-0.01,0.22,0,0,0
1.441,0.01,-0.01,0.22,0,0,0
1.442,0.01,-0.01,0.22,0,0,0
1.442,0.02,-0.02,0.22,0,0,0
1.442,0.02,-0.02,0.22,0,0,0
1.443,0.02,-0.02,0.22,0,0,0
1.443,0.02,-0.02,0.22,0,0,0
1.444,0.02,-0.02,0.22,0,0,0
1.448,0.02,-0.02,0.22,0,0,0
1.449,0.02,-0.01,0.22,0,0,0
1.449,0.02,-0.01,0.22,0,0,0
1.452,0.02,-0.01,0.22,0,0,0
1.452,0.02,-0.01,0.22,0,0,0
1.454,0.02,-0.01,0.22,0,0,0
1.458,0.02,-0.01,0.22,0,0,0
1.458,0.01,-0.01,0.22,0,0,0
1.459,0.01,-0.01,0.22,0,0,0
1.461,0.01,-0.01,0.22,0,0,0
1.463,0.01,-0.01,0.22,0,0,0
1.465,0.01,-0.01,0.22,0,0,0
1.487,0.01,-0.01,0.22,0,0,0
1.488,0.01,-0.01,0.22,0,0,0
1.488,0.01,-0.01,0.22,0,0,0
1.488,0.01,-0.01,0.22,0.01,0.04,0
1.489,0.01,-0.01,0.22,0.02,0.04,0
1.489,0.01,-0.01,0.22,0.03,0.06,0
1.489,0.01,-0.01,0.22,0.03,0.06,0
1.489,0.01,-0.01,0.22,0.03,0.06,0
1.489,0.01,-0.01,0.22,0.03,0.06,0
1.489,0.01,-0.01,0.22,0.05,0.1,0
1.495,0.01,-0.01,0.22,0.07,0.15,0
1.495,0.01,-0.01,0.22,0.08,0.17,0
1.495,0.01,-0.01,0.22,0.11,0.22,0
1.496,0.01,-0.01,0.22,0.13,0.26,0
1.496,0.06,-0.04,0.45,0.13,0.26,0
1.496,0.06,-0.04,0.45,0.14,0.28,-0.01
1.496,0.06,-0.04,0.45,0.15,0.3,0
1.497,0.06,-0.04,0.45,0.15,0.3,0
1.499,0.06,-0.04,0.45,0.14,0.29,0
1.499,0.06,-0.04,0.45,0.14,0.28,0
1.499,0.08,-0.04,0.37,0.14,0.28,0
1.5,0.08,-0.04,0.37,0.12,0.25,0
1.503,0.08,-0.04,0.37,0.1,0.21,0
1.504,0.08,-0.04,0.37,0.08,0.15,0
1.521,0.08,-0.04,0.37,0.07,0.13,0
1.521,0.08,-0.04,0.37,-0.06,-0.12,0.02
1.521,0.08,-0.04,0.37,-0.07,-0.15,0.02
1.522,0.08,-0.04,0.37,-0.07,-0.15,0.02
1.522,0.08,-0.04,0.37,-0.07,-0.15,0.02
1.522,0.08,-0.04,0.37,-0.08,-0.18,0.02
1.522,0.08,-0.04,0.37,-0.1,-0.21,0.03
1.522,0.08,-0.04,0.37,-0.1,-0.23,0.03
1.522,-0.04,-0.03,0.09,-0.1,-0.23,0.03
1.523,-0.03,-0.03,0.09,-0.1,-0.23,0.03
1.523,-0.05,-0.03,0.09,-0.1,-0.23,0.03
1.523,-0.05,-0.03,0.09,-0.12,-0.25,0.03
1.524,-0.05,-0.03,0.09,-0.13,-0.27,0.03
1.527,-0.05,-0.03,0.09,-0.14,-0.34,0.02
1.528,-0.06,0.01,-0.04,-0.14,-0.34,0.02
1.528,-0.06,0.01,-0.04,-0.16,-0.38,0.01
1.532,-0.06,0.01,-0.04,-0.22,-0.41,-0.02
1.533,-0.06,0.01,-0.04,-0.24,-0.47,-0.05
1.536,-0.06,0.01,-0.04,-0.24,-0.48,-0.08
1.537,-0.06,0.01,-0.04,-0.25,-0.46,-0.1
1.537,-0.13,-0.2,0.04,-0.25,-0.46,-0.1
1.538,-0.13,-0.2,0.04,-0.27,-0.42,-0.14
1.54,-0.13,-0.2,0.04,-0.3,-0.35,-0.18
1.542,-0.13,-0.2,0.04,-0.3,-0.3,-0.2
1.544,-0.13,-0.2,0.04,-0.34,-0.16,-0.24
1.56,-0.13,-0.2,0.04,-0.38,0.02,-0.28
1.561,-0.13,-0.2,0.04,-0.71,0.41,-0.32
1.561,-0.13,-0.2,0.04,-0.71,0.41,-0.32
1.561,-0.13,-0.2,0.04,-0.71,0.41,-0.32
1.562,-0.13,-0.2,0.04,-0.63,0.35,-0.33
1.562,-0.13,-0.2,0.04,-0.55,0.23,-0.35
1.562,-0.13,-0.2,0.04,-0.55,0.23,-0.35
1.563,-0.13,-0.2,0.04,-0.51,0.17,-0.34
1.563,-0.37,-0.05,1.77,-0.51,0.17,-0.34
1.563,-0.33,0.05,1.77,-0.51,0.17,-0.34
1.564,-0.33,0.05,1.77,-0.57,0.27,-0.33
1.572,-0.33,0.05,1.77,-0.55,0.25,-0.32
1.573,-0.33,0.05,1.77,-0.51,0.2,-0.31
1.573,-0.44,0.16,1.42,-0.51,0.2,-0.31
1.573,-0.44,0.16,1.42,-0.52,0.23,-0.29
1.573,-0.44,0.16,1.42,-0.5,0.2,-0.26
1.574,-0.44,0.16,1.42,-0.49,0.17,-0.26
1.574,-0.44,0.16,1.42,-0.49,0.13,-0.23
1.579,-0.44,0.16,1.42,-0.48,0.08,-0.2
1.579,-0.53,0.45,1.17,-0.48,0.08,-0.2
1.579,-0.53,0.45,1.17,-0.47,0.04,-0.19
1.581,-0.53,0.45,1.17,-0.47,-0.03,-0.17
1.589,-0.53,0.45,1.17,-0.49,-0.13,-0.14
1.589,-0.53,0.45,1.17,-0.52,-0.22,-0.1
1.599,-0.53,0.45,1.17,-0.54,-0.25,-0.08
1.6,-0.53,0.45,1.17,-0.72,-0.51,0.24
1.6,-0.53,0.45,1.17,-0.68,-0.46,0.27
1.6,-0.53,0.45,1.17,-0.64,-0.3,0.26
1.6,-0.53,0.45,1.17,-0.64,-0.3,0.26
1.601,-0.53,0.45,1.17,-0.64,-0.3,0.26
1.601,-0.53,0.45,1.17,-0.64,-0.3,0.26
1.601,-0.52,0.64,1.18,-0.64,-0.3,0.26
1.601,-0.54,0.69,1.18,-0.64,-0.3,0.26
1.602,-0.59,0.76,1.18,-0.64,-0.3,0.26
1.602,-0.59,0.76,1.18,-0.62,-0.16,0.25
1.602,-0.59,0.76,1.18,-0.67,-0.06,0.32
1.604,-0.59,0.76,1.18,-0.66,0.01,0.34
1.607,-0.59,0.76,1.18,-0.6,-0.05,0.34
1.608,0.05,0.6,1.44,-0.6,-0.05,0.34
1.608,0.05,0.6,1.44,-0.59,-0.12,0.36
1.61,0.05,0.6,1.44,-0.51,-0.18,0.34
1.612,0.05,0.6,1.44,-0.43,-0.25,0.3
1.614,0.05,0.6,1.44,-0.36,-0.36,0.26
1.617,0.05,0.6,1.44,-0.31,-0.45,0.21
1.617,0.71,0.1,1.65,-0.31,-0.45,0.21
1.618,0.71,0.1,1.65,-0.22,-0.63,0.14
1.62,0.71,0.1,1.65,-0.18,-0.73,0.09
1.622,0.71,0.1,1.65,-0.16,-0.77,0.06
1.625,0.71,0.1,1.65,-0.15,-0.81,0.01
1.639,0.71,0.1,1.65,-0.16,-0.82,-0.04
1.64,0.71,0.1,1.65,-0.27,-0.8,-0.13
1.64,0.71,0.1,1.65,-0.27,-0.8,-0.13
1.64,0.71,0.1,1.65,-0.27,-0.8,-0.13
1.641,0.71,0.1,1.65,-0.28,-0.82,-0.14
1.641,0.71,0.1,1.65,-0.28,-0.85,-0.14
1.641,0.71,0.1,1.65,-0.28,-0.85,-0.14
1.641,0.43,0.1,1.31,-0.28,-0.85,-0.14
1.641,0.35,0.12,1.31,-0.28,-0.85,-0.14
1.642,0.27,0.14,1.32,-0.28,-0.85,-0.14
1.642,0.27,0.14,1.32,-0.28,-0.92,-0.14
1.642,0.27,0.14,1.32,-0.29,-0.99,-0.13
1.647,0.27,0.14,1.32,-0.29,-1.03,-0.12
1.649,0.27,0.14,1.32,-0.29,-1.13,-0.1
1.649,0.27,0.14,1.32,-0.29,-1.23,-0.09
1.65,0.26,-0.1,1.34,-0.29,-1.23,-0.09
1.652,0.26,-0.1,1.34,-0.28,-1.35,-0.07
1.653,0.26,-0.1,1.34,-0.28,-1.41,-0.06
1.654,0.26,-0.1,1.34,-0.27,-1.52,-0.06
1.657,0.26,-0.1,1.34,-0.26,-1.67,-0.03
1.658,0.15,-0.22,1.53,-0.26,-1.67,-0.03
1.658,0.15,-0.22,1.53,-0.24,-1.83,0
1.66,0.15,-0.22,1.53,-0.23,-1.91,0.02
1.662,0.15,-0.22,1.53,-0.21,-2.08,0.06
1.665,0.15,-0.22,1.53,-0.18,-2.24,0.11
1.679,0.15,-0.22,1.53,-0.17,-2.32,0.13
1.68,0.15,-0.22,1.53,-0.09,-3.13,0.47
1.68,0.15,-0.22,1.53,-0.09,-3.13,0.47
1.68,0.15,-0.22,1.53,-0.09,-3.13,0.47
1.681,0.15,-0.22,1.53,-0.06,-3.35,0.54
1.681,0.15,-0.22,1.53,-0.03,-3.58,0.61
1.681,0.15,-0.22,1.53,-0.03,-3.58,0.61
1.682,0.33,-0.05,3.45,-0.03,-3.58,0.61
1.682,-0.2,-0.01,3.51,-0.03,-3.58,0.61
1.682,-0.52,0,3.56,-0.03,-3.58,0.61
1.682,-0.52,0,3.56,-0.02,-3.81,0.68
1.683,-0.52,0,3.56,0.01,-4.31,0.83
1.684,-0.52,0,3.56,0.03,-4.78,0.96
1.688,-0.52,0,3.56,0.05,-5.33,1.12
1.689,-0.52,0,3.56,0.06,-5.61,1.21
1.689,0.23,-0.33,4.48,0.06,-5.61,1.21
1.69,0.23,-0.33,4.48,0.12,-6.17,1.41
1.692,0.23,-0.33,4.48,0.17,-6.61,1.64
1.694,0.23,-0.33,4.48,0.18,-6.77,1.84
1.703,0.23,-0.33,4.48,0.16,-6.7,1.9
1.704,0.65,-0.49,2.94,0.16,-6.7,1.9
1.704,0.65,-0.49,2.94,0.08,-6.23,1.98
1.704,0.65,-0.49,2.94,-0.01,-5.48,2.08
1.705,0.65,-0.49,2.94,-0.1,-4.65,2.17
1.705,0.65,-0.49,2.94,-0.14,-4.24,2.2
1.723,0.65,-0.49,2.94,-0.22,-3.4,2.28
1.724,0.65,-0.49,2.94,-0.59,-0.66,1.72
1.724,0.65,-0.49,2.94,-0.59,-0.66,1.72
1.724,0.65,-0.49,2.94,-0.65,-0.41,1.51
1.724,0.65,-0.49,2.94,-0.65,-0.41,1.51
1.725,0.65,-0.49,2.94,-0.71,-0.18,1.28
1.725,0.65,-0.49,2.94,-0.71,-0.18,1.28
1.725,0.65,-0.49,2.94,-0.76,0.03,1.05
1.725,0.65,-0.49,2.94,-0.81,0.36,0.64
1.726,-2.51,1.23,-1.46,-0.81,0.36,0.64
1.726,-2.86,1.42,-1.34,-0.81,0.36,0.64
1.726,-2.86,1.42,-1.34,-0.8,0.57,0.33
1.728,-2.86,1.42,-1.34,-0.78,0.64,0.22
1.728,-1.34,0.34,-1.84,-0.78,0.64,0.22
1.729,-1.34,0.34,-1.84,-0.71,0.69,0.08
1.731,-1.34,0.34,-1.84,-0.59,0.59,-0.02
1.732,-1.34,0.34,-1.84,-0.52,0.49,-0.06
1.734,-1.34,0.34,-1.84,-0.38,0.23,-0.16
1.738,-1.34,0.34,-1.84,-0.25,-0.04,-0.25
1.738,-0.61,-0.64,-0.97,-0.25,-0.04,-0.25
1.739,-0.61,-0.64,-0.97,-0.13,-0.28,-0.32
1.74,-0.61,-0.64,-0.97,-0.09,-0.39,-0.36
1.742,-0.61,-0.64,-0.97,-0.01,-0.55,-0.44
1.744,-0.61,-0.64,-0.97,0.04,-0.64,-0.51
1.759,-0.61,-0.64,-0.97,0.08,-0.69,-0.57
1.76,-0.61,-0.64,-0.97,0.13,-0.47,-0.58
1.76,-0.61,-0.64,-0.97,0.13,-0.47,-0.58
1.76,-0.61,-0.64,-0.97,0.13,-0.47,-0.58
1.761,-0.61,-0.64,-0.97,0.13,-0.47,-0.58
1.761,-0.61,-0.64,-0.97,0.13,-0.47,-0.58
1.761,-0.61,-0.64,-0.97,0.09,-0.4,-0.53
1.761,-1,-0.08,-0.73,0.09,-0.4,-0.53
1.761,-1.07,-0.1,-0.71,0.09,-0.4,-0.53
1.762,-1.07,-0.1,-0.71,0.05,-0.36,-0.47
1.762,-1.07,-0.1,-0.71,0.02,-0.34,-0.44
1.769,-1.07,-0.1,-0.71,-0.02,-0.36,-0.38
1.769,-1.07,-0.1,-0.71,-0.06,-0.4,-0.34
1.77,-1.07,-0.1,-0.71,-0.1,-0.45,-0.3
1.77,-1.19,-0.02,-0.2,-0.1,-0.45,-0.3
1.773,-1.19,-0.02,-0.2,-0.12,-0.48,-0.29
1.773,-1.19,-0.02,-0.2,-0.16,-0.54,-0.26
1.774,-1.19,-0.02,-0.2,-0.2,-0.59,-0.26
1.777,-1.19,-0.02,-0.2,-0.26,-0.62,-0.27
1.778,-1.01,-0.01,0.11,-0.26,-0.62,-0.27
1.778,-1.01,-0.01,0.11,-0.28,-0.63,-0.29
1.781,-1.01,-0.01,0.11,-0.34,-0.64,-0.32
1.782,-1.01,-0.01,0.11,-0.39,-0.62,-0.37
1.785,-1.01,-0.01,0.11,-0.42,-0.6,-0.39
1.8,-1.01,-0.01,0.11,-0.48,-0.58,-0.45
1.801,-1.01,-0.01,0.11,-0.62,-0.56,-0.72
1.801,-1.01,-0.01,0.11,-0.62,-0.55,-0.76
1.801,-1.01,-0.01,0.11,-0.62,-0.55,-0.76
1.801,-1.01,-0.01,0.11,-0.62,-0.53,-0.79
1.802,-1.01,-0.01,0.11,-0.6,-0.51,-0.82
1.802,-1.01,-0.01,0.11,-0.6,-0.51,-0.82
1.802,0.08,-0.2,0.8,-0.6,-0.51,-0.82
1.802,-0.02,-0.14,0.85,-0.6,-0.51,-0.82
1.803,-0.02,-0.14,0.85,-0.57,-0.48,-0.84
1.804,-0.02,-0.14,0.85,-0.48,-0.42,-0.86
1.804,-0.02,-0.14,0.85,-0.35,-0.39,-0.86
1.807,-0.02,-0.14,0.85,-0.27,-0.37,-0.85
1.808,-0.2,-0.2,1.97,-0.27,-0.37,-0.85
1.812,-0.2,-0.2,1.97,-0.08,-0.36,-0.83
1.812,-0.2,-0.2,1.97,0.13,-0.35,-0.8
1.812,-0.2,-0.2,1.97,0.35,-0.37,-0.77
1.814,-0.2,-0.2,1.97,0.47,-0.38,-0.75
1.817,-0.2,-0.2,1.97,0.71,-0.38,-0.73
1.818,-0.31,-0.13,3.42,0.71,-0.38,-0.73
1.82,-0.31,-0.13,3.42,0.95,-0.36,-0.71
1.821,-0.31,-0.13,3.42,1.19,-0.3,-0.69
1.822,-0.31,-0.13,3.42,1.3,-0.27,-0.68
1.824,-0.31,-0.13,3.42,1.54,-0.17,-0.65
1.84,-0.31,-0.13,3.42,1.76,-0.05,-0.61
1.84,-0.31,-0.13,3.42,2.24,0.23,-0.78
1.841,-0.31,-0.13,3.42,2.27,0.28,-0.82
1.841,-0.31,-0.13,3.42,2.29,0.33,-0.86
1.841,-0.31,-0.13,3.42,2.29,0.33,-0.86
1.841,-0.31,-0.13,3.42,2.29,0.33,-0.86
1.841,-0.31,-0.13,3.42,2.29,0.33,-0.86
1.842,0.72,0.19,4.24,2.29,0.33,-0.86
1.842,0.72,-0.23,4.2,2.29,0.33,-0.86
1.842,0.72,-0.23,4.2,2.33,0.43,-0.95
1.843,0.72,-0.23,4.2,2.36,0.57,-1.04
1.844,0.72,-0.23,4.2,2.36,0.65,-1.08
1.851,0.72,-0.23,4.2,2.36,0.8,-1.16
1.851,0.72,-0.23,4.2,2.35,0.99,-1.24
1.852,0.72,-0.23,4.2,2.34,1.1,-1.28
1.852,0.81,-0.25,4.09,2.34,1.1,-1.28
1.853,0.81,-0.25,4.09,2.31,1.36,-1.35
1.854,0.81,-0.25,4.09,2.26,1.67,-1.43
1.857,0.81,-0.25,4.09,2.19,2.02,-1.52
1.858,0.84,-0.36,3.65,2.19,2.02,-1.52
1.858,0.84,-0.36,3.65,2.15,2.21,-1.56
1.86,0.84,-0.36,3.65,2.05,2.6,-1.63
1.862,0.84,-0.36,3.65,1.93,3.01,-1.7
1.865,0.84,-0.36,3.65,1.81,3.41,-1.77
1.888,0.84,-0.36,3.65,1.74,3.61,-1.79
1.888,0.84,-0.36,3.65,1.23,5.11,-1.95
1.889,0.84,-0.36,3.65,1.17,5.25,-1.98
1.889,0.84,-0.36,3.65,1.17,5.25,-1.98
1.889,0.84,-0.36,3.65,1.17,5.25,-1.98
1.889,0.84,-0.36,3.65,1.12,5.38,-2
1.89,0.84,-0.36,3.65,1.07,5.52,-2.02
1.89,0.68,-1.4,1.99,1.07,5.52,-2.02
1.89,1.52,-1.78,1.76,1.07,5.52,-2.02
1.891,2.04,-1.93,1.66,1.07,5.52,-2.02
1.891,2.04,-1.93,1.66,1.02,5.64,-2.03
1.891,2.04,-1.93,1.66,0.95,5.86,-2.03
1.892,2.04,-1.93,1.66,0.9,6.03,-2.02
1.892,2.04,-1.93,1.66,0.87,6.16,-1.99
1.892,2.04,-1.93,1.66,0.87,6.16,-1.99
1.893,2.04,-1.93,1.66,0.86,6.2,-1.98
1.893,2.04,-1.93,1.66,0.85,6.28,-1.94
1.893,2.04,-1.93,1.66,0.83,6.33,-1.91
1.895,2.04,-1.93,1.66,0.82,6.35,-1.88
1.9,2.04,-1.93,1.66,0.81,6.38,-1.83
1.9,2.04,-1.93,1.66,0.79,6.4,-1.77
1.9,1.46,-2.25,1.21,0.79,6.4,-1.77
1.9,1.46,-2.25,1.21,0.78,6.39,-1.7
1.904,1.46,-2.25,1.21,0.77,6.38,-1.67
1.905,1.46,-2.25,1.21,0.76,6.35,-1.61
1.922,1.46,-2.25,1.21,0.75,6.3,-1.56
1.923,1.46,-2.25,1.21,0.68,6.13,-1.51
1.923,1.46,-2.25,1.21,0.68,6.13,-1.51
1.924,1.46,-2.25,1.21,0.68,6.13,-1.51
1.924,1.46,-2.25,1.21,0.67,6.11,-1.52
1.924,1.46,-2.25,1.21,0.65,6.1,-1.53
1.925,1.46,-2.25,1.21,0.65,6.1,-1.53
1.925,1.46,-2.25,1.21,0.61,6.06,-1.57
1.925,1.19,-1.25,0.88,0.61,6.06,-1.57
1.925,2.43,-1.39,0.9,0.61,6.06,-1.57
1.926,3.04,-1.44,0.96,0.61,6.06,-1.57
1.926,3.04,-1.44,0.96,0.55,5.98,-1.62
1.926,3.04,-1.44,0.96,0.51,5.92,-1.65
1.927,3.04,-1.44,0.96,0.46,5.8,-1.69
1.928,2.98,-0.87,0.9,0.46,5.8,-1.69
1.928,2.98,-0.87,0.9,0.45,5.67,-1.73
1.93,2.98,-0.87,0.9,0.44,5.56,-1.81
1.932,2.98,-0.87,0.9,0.42,5.5,-1.88
1.936,2.98,-0.87,0.9,0.4,5.31,-2.05
1.937,2.98,-0.87,0.9,0.36,5.12,-2.2
1.937,3.88,-0.67,1.01,0.36,5.12,-2.2
1.938,3.88,-0.67,1.01,0.34,5.04,-2.27
1.94,3.88,-0.67,1.01,0.3,4.84,-2.37
1.942,3.88,-0.67,1.01,0.26,4.52,-2.41
1.944,3.88,-0.67,1.01,0.21,4.1,-2.39
1.961,3.88,-0.67,1.01,0.21,3.9,-2.36
1.962,3.88,-0.67,1.01,0.65,3.86,-1.94
1.962,3.88,-0.67,1.01,0.78,4.02,-1.88
1.962,3.88,-0.67,1.01,0.93,4.19,-1.82
1.962,3.88,-0.67,1.01,0.93,4.19,-1.82
1.963,3.88,-0.67,1.01,0.93,4.19,-1.82
1.963,3.88,-0.67,1.01,0.93,4.19,-1.82
1.963,3.88,-0.67,1.01,1.08,4.35,-1.76
1.964,1.12,-0.84,3.5,1.08,4.35,-1.76
1.964,1.51,-0.8,3.6,1.08,4.35,-1.76
1.964,1.89,-0.8,3.72,1.08,4.35,-1.76
1.965,1.89,-0.8,3.72,1.41,4.66,-1.61
1.965,1.89,-0.8,3.72,1.75,4.91,-1.43
1.978,1.89,-0.8,3.72,2.07,5.07,-1.21
1.982,0.47,-0.93,4.94,2.07,5.07,-1.21
1.982,0.47,-0.93,4.94,2.23,5.12,-1.1
1.985,0.47,-0.93,4.94,2.5,5.15,-0.88
1.985,0.47,-0.93,4.94,2.72,5.11,-0.7
1.985,0.47,-0.93,4.94,2.91,5,-0.56
1.985,0.47,-0.93,4.94,2.98,4.93,-0.52
1.986,0.96,-1.83,5.34,2.98,4.93,-0.52
1.986,0.96,-1.83,5.34,3.1,4.75,-0.48
1.986,0.96,-1.83,5.34,3.18,4.56,-0.5
1.986,0.96,-1.83,5.34,3.2,4.45,-0.52
1.986,0.96,-1.83,5.34,3.23,4.25,-0.62
1.999,0.96,-1.83,5.34,3.24,4.06,-0.73
1.999,0.96,-1.83,5.34,3.1,3.59,-1.16
1.999,0.96,-1.83,5.34,3.1,3.59,-1.16
2,0.96,-1.83,5.34,3.1,3.59,-1.16
2,0.96,-1.83,5.34,3.1,3.59,-1.16
2,0.96,-1.83,5.34,3.07,3.57,-1.2
2,0.96,-1.83,5.34,3.03,3.56,-1.22
2,2.52,-1.75,2.15,3.03,3.56,-1.22
2,3.21,-2.21,2.59,3.03,3.56,-1.22
2.002,3.21,-2.21,2.59,2.95,3.55,-1.27
2.002,3.21,-2.21,2.59,2.87,3.56,-1.29
2.005,3.21,-2.21,2.59,2.82,3.57,-1.29
2.008,3.21,-2.21,2.59,2.73,3.62,-1.28
2.009,3.21,-2.21,2.59,2.63,3.69,-1.26
2.009,3.05,-2.19,1.87,2.63,3.69,-1.26
2.01,3.05,-2.19,1.87,2.54,3.78,-1.23
2.012,3.05,-2.19,1.87,2.49,3.82,-1.22
2.015,3.05,-2.19,1.87,2.4,3.88,-1.2
2.018,3.05,-2.19,1.87,2.3,3.91,-1.19
2.018,3.05,-2.19,1.87,2.21,3.87,-1.18
2.018,2.85,-2.28,1.21,2.21,3.87,-1.18
2.021,2.85,-2.28,1.21,2.16,3.82,-1.19
2.023,2.85,-2.28,1.21,2.07,3.69,-1.21
2.024,2.85,-2.28,1.21,1.97,3.55,-1.25
2.041,2.85,-2.28,1.21,1.92,3.48,-1.27
2.042,2.85,-2.28,1.21,1.7,2.99,-1.29
2.042,2.85,-2.28,1.21,1.7,2.99,-1.29
2.042,2.85,-2.28,1.21,1.7,2.99,-1.29
2.043,2.85,-2.28,1.21,1.68,2.97,-1.3
2.043,2.85,-2.28,1.21,1.67,2.96,-1.3
2.043,2.85,-2.28,1.21,1.67,2.96,-1.3
2.043,2.85,-2.28,1.21,1.66,2.92,-1.28
2.044,3.23,-2.69,-0.36,1.66,2.92,-1.28
2.044,3.77,-2.8,0.11,1.66,2.92,-1.28
2.044,3.77,-2.8,0.11,1.67,2.89,-1.26
2.044,3.77,-2.8,0.11,1.67,2.81,-1.21
2.049,3.77,-2.8,0.11,1.66,2.72,-1.15
2.049,3.77,-2.8,0.11,1.65,2.67,-1.13
2.049,3.3,-2.62,-0.57,1.65,2.67,-1.13
2.051,3.3,-2.62,-0.57,1.6,2.56,-1.09
2.053,3.3,-2.62,-0.57,1.52,2.43,-1.08
2.054,3.3,-2.62,-0.57,1.43,2.3,-1.09
2.057,3.3,-2.62,-0.57,1.39,2.24,-1.1
2.057,2.97,-2.16,-0.94,1.39,2.24,-1.1
2.058,2.97,-2.16,-0.94,1.3,2.12,-1.14
2.06,2.97,-2.16,-0.94,1.2,2,-1.19
2.062,2.97,-2.16,-0.94,1.11,1.91,-1.25
2.065,2.97,-2.16,-0.94,1.06,1.86,-1.27
2.08,2.97,-2.16,-0.94,0.97,1.78,-1.32
2.081,2.97,-2.16,-0.94,0.58,1.4,-1.54
2.081,2.97,-2.16,-0.94,0.53,1.37,-1.57
2.081,2.97,-2.16,-0.94,0.49,1.35,-1.6
2.081,2.97,-2.16,-0.94,0.49,1.35,-1.6
2.081,2.97,-2.16,-0.94,0.49,1.35,-1.6
2.081,2.97,-2.16,-0.94,0.44,1.33,-1.63
2.082,2.97,-2.16,-0.94,0.39,1.32,-1.66
2.082,3.28,-1.46,-1.97,0.39,1.32,-1.66
2.082,3.56,-1.36,-1.72,0.39,1.32,-1.66
2.082,3.69,-1.29,-1.61,0.39,1.32,-1.66
2.082,3.69,-1.29,-1.61,0.3,1.3,-1.71
2.086,3.69,-1.29,-1.61,0.22,1.27,-1.77
2.087,3.69,-1.29,-1.61,0.18,1.26,-1.79
2.087,3.67,-1.24,-1.94,0.18,1.26,-1.79
2.088,3.67,-1.24,-1.94,0.1,1.23,-1.84
2.09,3.67,-1.24,-1.94,0.04,1.18,-1.88
2.092,3.67,-1.24,-1.94,0,1.15,-1.9
2.094,3.67,-1.24,-1.94,-0.06,1.09,-1.93
2.097,3.67,-1.24,-1.94,-0.12,1.01,-1.96
2.097,3.63,-1.01,-2,-0.12,1.01,-1.96
2.1,3.63,-1.01,-2,-0.17,0.92,-1.99
2.101,3.63,-1.01,-2,-0.2,0.87,-2
2.102,3.63,-1.01,-2,-0.26,0.76,-2.01
2.104,3.63,-1.01,-2,-0.32,0.63,-2.02
2.119,3.63,-1.01,-2,-0.39,0.5,-2.02
2.12,3.63,-1.01,-2,-0.7,-0.18,-1.87
2.12,3.63,-1.01,-2,-0.7,-0.18,-1.87
2.12,3.63,-1.01,-2,-0.7,-0.18,-1.87
2.12,3.63,-1.01,-2,-0.75,-0.29,-1.84
2.12,3.63,-1.01,-2,-0.8,-0.39,-1.8
2.12,3.63,-1.01,-2,-0.8,-0.39,-1.8
2.121,2.63,-0.46,-2.55,-0.8,-0.39,-1.8
2.121,2.72,-0.11,-2.55,-0.8,-0.39,-1.8
2.121,2.73,0.08,-2.58,-0.8,-0.39,-1.8
2.121,2.73,0.08,-2.58,-0.91,-0.61,-1.73
2.122,2.73,0.08,-2.58,-0.95,-0.72,-1.69
2.124,2.73,0.08,-2.58,-1.06,-0.96,-1.6
2.127,2.73,0.08,-2.58,-1.17,-1.22,-1.5
2.127,2.24,0.17,-2.73,-1.17,-1.22,-1.5
2.128,2.24,0.17,-2.73,-1.27,-1.5,-1.39
2.13,2.24,0.17,-2.73,-1.32,-1.65,-1.33
2.132,2.24,0.17,-2.73,-1.4,-1.97,-1.2
2.135,2.24,0.17,-2.73,-1.48,-2.33,-1.06
2.137,2.24,0.17,-2.73,-1.51,-2.52,-0.98
2.137,1.19,0.54,-2.51,-1.51,-2.52,-0.98
2.138,1.19,0.54,-2.51,-1.56,-2.91,-0.81
2.14,1.19,0.54,-2.51,-1.6,-3.31,-0.62
2.142,1.19,0.54,-2.51,-1.61,-3.71,-0.42
2.144,1.19,0.54,-2.51,-1.62,-3.92,-0.31
2.159,1.19,0.54,-2.51,-1.61,-4.32,-0.09
2.159,1.19,0.54,-2.51,-1.45,-5.96,0.84
2.159,1.19,0.54,-2.51,-1.45,-5.96,0.84
2.159,1.19,0.54,-2.51,-1.45,-5.96,0.84
2.159,1.19,0.54,-2.51,-1.42,-6.18,0.95
2.16,1.19,0.54,-2.51,-1.38,-6.4,1.06
2.16,1.19,0.54,-2.51,-1.38,-6.4,1.06
2.16,-1.88,1.61,-0.55,-1.38,-6.4,1.06
2.16,-2.6,1.77,-1.29,-1.38,-6.4,1.06
2.16,-3.07,1.82,-1.69,-1.38,-6.4,1.06
2.161,-3.07,1.82,-1.69,-1.3,-6.85,1.27
2.162,-3.07,1.82,-1.69,-1.23,-7.32,1.47
2.164,-3.07,1.82,-1.69,-1.14,-7.78,1.65
2.168,-3.07,1.82,-1.69,-1.1,-8.01,1.73
2.168,-2.98,1.91,-1.28,-1.1,-8.01,1.73
2.169,-2.98,1.91,-1.28,-1.03,-8.44,1.88
2.17,-2.98,1.91,-1.28,-0.97,-8.84,2.01
2.172,-2.98,1.91,-1.28,-0.92,-9.21,2.12
2.174,-2.98,1.91,-1.28,-0.89,-9.38,2.16
2.177,-2.98,1.91,-1.28,-0.85,-9.7,2.24
2.178,-2.66,1.84,-1.89,-0.85,-9.7,2.24
2.178,-2.66,1.84,-1.89,-0.82,-10,2.3
2.18,-2.66,1.84,-1.89,-0.79,-10.15,2.32
2.182,-2.66,1.84,-1.89,-0.75,-10.42,2.36
2.184,-2.66,1.84,-1.89,-0.72,-10.66,2.38
2.199,-2.66,1.84,-1.89,-0.69,-10.87,2.39
2.2,-2.66,1.84,-1.89,-0.58,-10.9,2.27
2.2,-2.66,1.84,-1.89,-0.65,-10.28,2.21
2.2,-2.66,1.84,-1.89,-0.71,-9.68,2.14
2.2,-2.66,1.84,-1.89,-0.71,-9.68,2.14
2.201,-2.66,1.84,-1.89,-0.71,-9.68,2.14
2.201,-2.66,1.84,-1.89,-0.71,-9.68,2.14
2.201,0.94,0.76,-2.76,-0.71,-9.68,2.14
2.201,-1.08,0.71,-3.53,-0.71,-9.68,2.14
2.201,-2.08,0.73,-3.74,-0.71,-9.68,2.14
2.201,-2.08,0.73,-3.74,-0.73,-8.87,1.97
2.203,-2.08,0.73,-3.74,-0.7,-8.59,1.9
2.204,-2.08,0.73,-3.74,-0.63,-8.17,1.74
2.207,-2.08,0.73,-3.74,-0.51,-7.88,1.59
2.207,-0.5,0.64,-2.55,-0.51,-7.88,1.59
2.208,-0.5,0.64,-2.55,-0.37,-7.66,1.47
2.21,-0.5,0.64,-2.55,-0.29,-7.54,1.42
2.212,-0.5,0.64,-2.55,-0.11,-6.9,1.35
2.214,-0.5,0.64,-2.55,0.17,-5.5,1.29
2.216,-0.5,0.64,-2.55,0.47,-4.17,1.19
2.217,-0.93,1.12,0.19,0.47,-4.17,1.19
2.219,-0.93,1.12,0.19,0.6,-3.78,1.14
2.22,-0.93,1.12,0.19,0.84,-3.63,1.05
2.222,-0.93,1.12,0.19,1.06,-3.78,0.97
2.224,-0.93,1.12,0.19,1.15,-3.87,0.93
2.239,-0.93,1.12,0.19,1.31,-3.95,0.84
2.239,-0.93,1.12,0.19,1.74,-3.11,0.44
2.239,-0.93,1.12,0.19,1.74,-3.11,0.44
2.24,-0.93,1.12,0.19,1.74,-3.11,0.44
2.24,-0.93,1.12,0.19,1.8,-2.9,0.39
2.24,-0.93,1.12,0.19,1.8,-2.9,0.39
2.24,-0.93,1.12,0.19,1.86,-2.68,0.34
2.24,0.83,0.27,1.03,1.86,-2.68,0.34
2.241,0.15,-0.03,1.07,1.86,-2.68,0.34
2.241,0.15,-0.03,1.07,1.99,-2.26,0.24
2.242,0.15,-0.03,1.07,2.14,-1.93,0.13
2.244,0.15,-0.03,1.07,2.28,-1.72,0.02
2.248,0.15,-0.03,1.07,2.34,-1.66,-0.04
2.249,0.15,-0.03,1.07,2.47,-1.57,-0.17
2.249,0.3,-0.64,1.56,2.47,-1.57,-0.17
2.251,0.3,-0.64,1.56,2.59,-1.53,-0.32
2.252,0.3,-0.64,1.56,2.7,-1.5,-0.49
2.254,0.3,-0.64,1.56,2.76,-1.5,-0.58
2.257,0.3,-0.64,1.56,2.86,-1.53,-0.77
2.257,0.48,-1.59,2.23,2.86,-1.53,-0.77
2.258,0.48,-1.59,2.23,2.96,-1.61,-0.97
2.26,0.48,-1.59,2.23,3.05,-1.75,-1.15
2.262,0.48,-1.59,2.23,3.09,-1.84,-1.24
2.265,0.48,-1.59,2.23,3.18,-2.03,-1.4
2.28,0.48,-1.59,2.23,3.26,-2.24,-1.53
2.28,0.48,-1.59,2.23,3.64,-3.16,-1.76
2.281,0.48,-1.59,2.23,3.64,-3.16,-1.76
2.281,0.48,-1.59,2.23,3.64,-3.16,-1.76
2.281,0.48,-1.59,2.23,3.69,-3.28,-1.76
2.281,0.48,-1.59,2.23,3.74,-3.4,-1.76
2.281,0.48,-1.59,2.23,3.74,-3.4,-1.76
2.281,0.48,-1.59,2.23,3.84,-3.68,-1.74
2.282,-0.56,-1.32,3.01,3.84,-3.68,-1.74
2.282,-0.97,-2,3.24,3.84,-3.68,-1.74
2.282,-0.97,-2,3.24,3.93,-3.98,-1.7
2.284,-0.97,-2,3.24,3.98,-4.15,-1.68
2.288,-0.97,-2,3.24,4.08,-4.48,-1.64
2.288,-1.4,-2.4,3.17,4.08,-4.48,-1.64
2.288,-1.4,-2.4,3.17,4.15,-4.8,-1.59
2.29,-1.4,-2.4,3.17,4.19,-4.96,-1.57
2.292,-1.4,-2.4,3.17,4.24,-5.26,-1.52
2.294,-1.4,-2.4,3.17,4.3,-5.52,-1.48
2.297,-1.4,-2.4,3.17,4.33,-5.77,-1.45
2.3,-1.93,-2.79,2.98,4.33,-5.77,-1.45
2.3,-1.93,-2.79,2.98,4.35,-5.9,-1.43
2.301,-1.93,-2.79,2.98,4.37,-6.13,-1.41
2.305,-1.93,-2.79,2.98,4.36,-6.36,-1.39
2.306,-1.93,-2.79,2.98,4.35,-6.58,-1.37
2.32,-1.93,-2.79,2.98,4.35,-6.69,-1.37
2.321,-1.93,-2.79,2.98,4.25,-7.32,-1.44
2.321,-1.93,-2.79,2.98,4.24,-7.36,-1.45
2.321,-1.93,-2.79,2.98,4.23,-7.38,-1.46
2.321,-1.93,-2.79,2.98,4.23,-7.38,-1.46
2.321,-1.93,-2.79,2.98,4.23,-7.38,-1.46
2.322,-1.93,-2.79,2.98,4.23,-7.38,-1.46
2.322,-2.34,-2.37,2.41,4.23,-7.38,-1.46
2.322,-2.85,-2.78,2.77,4.23,-7.38,-1.46
2.322,-3.38,-3.17,3.2,4.23,-7.38,-1.46
2.322,-3.38,-3.17,3.2,4.23,-7.4,-1.48
2.322,-3.38,-3.17,3.2,4.22,-7.42,-1.51
2.324,-3.38,-3.17,3.2,4.23,-7.39,-1.53
2.328,-3.38,-3.17,3.2,4.24,-7.33,-1.56
2.328,-3.38,-3.17,3.2,4.25,-7.28,-1.56
2.328,-3.32,-2.67,3.06,4.25,-7.28,-1.56
2.33,-3.32,-2.67,3.06,4.29,-7.16,-1.58
2.332,-3.32,-2.67,3.06,4.27,-6.88,-1.59
2.334,-3.32,-2.67,3.06,4.19,-6.56,-1.6
2.337,-3.32,-2.67,3.06,3.61,-5.2,-1.56
2.338,-3.87,-2.35,1.77,3.61,-5.2,-1.56
2.338,-3.87,-2.35,1.77,3.2,-4.22,-1.47
2.34,-3.87,-2.35,1.77,2.99,-3.67,-1.36
2.341,-3.87,-2.35,1.77,2.92,-3.42,-1.31
2.344,-3.87,-2.35,1.77,2.78,-2.89,-1.23
2.36,-3.87,-2.35,1.77,2.66,-2.31,-1.17
2.36,-3.87,-2.35,1.77,2.42,-0.5,-0.74
2.36,-3.87,-2.35,1.77,2.42,-0.5,-0.74
2.36,-3.87,-2.35,1.77,2.4,-0.35,-0.68
2.361,-3.87,-2.35,1.77,2.38,-0.22,-0.62
2.361,-3.87,-2.35,1.77,2.38,-0.22,-0.62
2.361,-3.87,-2.35,1.77,2.38,-0.22,-0.62
2.361,-3.26,-0.89,1.56,2.38,-0.22,-0.62
2.361,-3.34,-1.32,1.96,2.38,-0.22,-0.62
2.362,-3.33,-1.5,2.12,2.38,-0.22,-0.62
2.362,-3.33,-1.5,2.12,2.33,-0.02,-0.51
2.362,-3.33,-1.5,2.12,2.29,0.11,-0.43
2.364,-3.33,-1.5,2.12,2.26,0.15,-0.41
2.368,-3.33,-1.5,2.12,2.22,0.21,-0.37
2.369,-2.51,-1.23,1.97,2.22,0.21,-0.37
2.369,-2.51,-1.23,1.97,2.17,0.22,-0.37
2.37,-2.51,-1.23,1.97,2.14,0.2,-0.4
2.373,-2.51,-1.23,1.97,2.12,0.19,-0.43
2.375,-2.51,-1.23,1.97,2.09,0.15,-0.49
2.378,-2.51,-1.23,1.97,2.07,0.13,-0.57
2.378,-1.43,-1.17,2.15,2.07,0.13,-0.57
2.379,-1.43,-1.17,2.15,2.06,0.12,-0.61
2.38,-1.43,-1.17,2.15,2.05,0.13,-0.69
2.382,-1.43,-1.17,2.15,2.04,0.2,-0.77
2.384,-1.43,-1.17,2.15,2.03,0.33,-0.84
2.4,-1.43,-1.17,2.15,2.02,0.42,-0.87
2.4,-1.43,-1.17,2.15,2.01,1.11,-1.04
2.401,-1.43,-1.17,2.15,2.01,1.11,-1.04
2.401,-1.43,-1.17,2.15,2.01,1.11,-1.04
2.401,-1.43,-1.17,2.15,2.01,1.16,-1.05
2.401,-1.43,-1.17,2.15,2.01,1.2,-1.06
2.401,-1.43,-1.17,2.15,2.01,1.2,-1.06
2.402,0.07,-1.1,2.05,2.01,1.2,-1.06
2.402,0.29,-1.43,2.24,2.01,1.2,-1.06
2.402,0.43,-1.59,2.33,2.01,1.2,-1.06
2.402,0.43,-1.59,2.33,2.01,1.24,-1.06
2.402,0.43,-1.59,2.33,2.01,1.31,-1.06
2.404,0.43,-1.59,2.33,2.01,1.36,-1.04
2.407,0.43,-1.59,2.33,2,1.41,-1.03
2.407,0.29,-1.59,2.07,2,1.41,-1.03
2.408,0.29,-1.59,2.07,1.99,1.43,-1.01
2.41,0.29,-1.59,2.07,1.97,1.46,-0.99
2.412,0.29,-1.59,2.07,1.95,1.49,-0.96
2.414,0.29,-1.59,2.07,1.93,1.52,-0.94
2.417,0.29,-1.59,2.07,1.91,1.53,-0.92
2.417,0.15,-1.69,1.68,1.91,1.53,-0.92
2.418,0.15,-1.69,1.68,1.88,1.55,-0.9
2.42,0.15,-1.69,1.68,1.85,1.56,-0.87
2.422,0.15,-1.69,1.68,1.84,1.57,-0.86
2.424,0.15,-1.69,1.68,1.81,1.57,-0.84
2.44,0.15,-1.69,1.68,1.78,1.58,-0.83
2.44,0.15,-1.69,1.68,1.66,1.55,-1
2.44,0.15,-1.69,1.68,1.67,1.56,-1.02
2.44,0.15,-1.69,1.68,1.66,1.57,-1.04
2.441,0.15,-1.69,1.68,1.66,1.57,-1.04
2.441,0.15,-1.69,1.68,1.66,1.57,-1.05
2.441,0.15,-1.69,1.68,1.66,1.57,-1.05
2.441,0.59,-1.48,0.54,1.66,1.57,-1.05
2.441,0.9,-1.73,0.68,1.66,1.57,-1.05
2.441,0.9,-1.73,0.68,1.67,1.58,-1.07
2.442,0.9,-1.73,0.68,1.69,1.58,-1.1
2.444,0.9,-1.73,0.68,1.69,1.57,-1.11
2.448,0.9,-1.73,0.68,1.71,1.54,-1.12
2.448,0.6,-1.47,0.32,1.71,1.54,-1.12
2.448,0.6,-1.47,0.32,1.72,1.51,-1.13
2.45,0.6,-1.47,0.32,1.74,1.46,-1.14
2.452,0.6,-1.47,0.32,1.74,1.43,-1.14
2.454,0.6,-1.47,0.32,1.75,1.37,-1.13
2.457,0.6,-1.47,0.32,1.76,1.3,-1.12
2.457,0.31,-1.25,0.06,1.76,1.3,-1.12
2.46,0.31,-1.25,0.06,1.76,1.22,-1.1
2.461,0.31,-1.25,0.06,1.76,1.17,-1.09
2.462,0.31,-1.25,0.06,1.75,1.09,-1.06
2.464,0.31,-1.25,0.06,1.74,1,-1.03
2.48,0.31,-1.25,0.06,1.73,0.95,-1.02
2.48,0.31,-1.25,0.06,1.64,0.56,-0.83
2.48,0.31,-1.25,0.06,1.64,0.56,-0.83
2.48,0.31,-1.25,0.06,1.64,0.56,-0.83
2.48,0.31,-1.25,0.06,1.64,0.56,-0.83
2.481,0.31,-1.25,0.06,1.63,0.52,-0.81
2.481,0.31,-1.25,0.06,1.61,0.49,-0.78
2.481,-0.75,-0.82,-0.68,1.61,0.49,-0.78
2.481,-0.53,-1.05,-0.47,1.61,0.49,-0.78
2.481,-0.53,-1.05,-0.47,1.59,0.43,-0.72
2.484,-0.53,-1.05,-0.47,1.58,0.41,-0.7
2.485,-0.53,-1.05,-0.47,1.55,0.36,-0.64
2.489,-0.53,-1.05,-0.47,1.51,0.33,-0.58
2.489,-0.53,-1.05,-0.47,1.49,0.32,-0.56
2.489,-1.01,-0.99,-0.88,1.49,0.32,-0.56
2.49,-1.01,-0.99,-0.88,1.45,0.3,-0.51
2.492,-1.01,-0.99,-0.88,1.41,0.29,-0.47
2.494,-1.01,-0.99,-0.88,1.35,0.28,-0.44
2.497,-1.01,-0.99,-0.88,1.32,0.29,-0.42
2.497,-1.17,-1.01,-1.22,1.32,0.29,-0.42
2.498,-1.17,-1.01,-1.22,1.27,0.29,-0.39
2.5,-1.17,-1.01,-1.22,1.22,0.29,-0.36
2.503,-1.17,-1.01,-1.22,1.17,0.3,-0.32
2.504,-1.17,-1.01,-1.22,1.14,0.3,-0.31
2.519,-1.17,-1.01,-1.22,1.1,0.3,-0.27
2.52,-1.17,-1.01,-1.22,0.95,0.26,-0.16
2.52,-1.17,-1.01,-1.22,0.95,0.26,-0.16
2.52,-1.17,-1.01,-1.22,0.95,0.26,-0.16
2.52,-1.17,-1.01,-1.22,0.93,0.24,-0.15
2.52,-1.17,-1.01,-1.22,0.92,0.23,-0.14
2.521,-1.17,-1.01,-1.22,0.92,0.23,-0.14
2.521,-1.34,-0.79,-1.8,0.92,0.23,-0.14
2.521,-1.28,-0.9,-1.65,0.92,0.23,-0.14
2.521,-1.26,-0.95,-1.58,0.92,0.23,-0.14
2.521,-1.26,-0.95,-1.58,0.89,0.21,-0.12
2.522,-1.26,-0.95,-1.58,0.86,0.17,-0.11
2.524,-1.26,-0.95,-1.58,0.84,0.14,-0.1
2.527,-1.26,-0.95,-1.58,0.83,0.12,-0.11
2.527,-1.06,-0.85,-1.69,0.83,0.12,-0.11
2.528,-1.06,-0.85,-1.69,0.81,0.07,-0.12
2.53,-1.06,-0.85,-1.69,0.79,0.02,-0.15
2.532,-1.06,-0.85,-1.69,0.78,-0.01,-0.16
2.534,-1.06,-0.85,-1.69,0.76,-0.06,-0.17
2.537,-1.06,-0.85,-1.69,0.76,-0.1,-0.17
2.537,-1,-0.86,-1.56,0.76,-0.1,-0.17
2.538,-1,-0.86,-1.56,0.76,-0.13,-0.15
2.54,-1,-0.86,-1.56,0.76,-0.14,-0.15
2.542,-1,-0.86,-1.56,0.76,-0.17,-0.12
2.544,-1,-0.86,-1.56,0.76,-0.2,-0.09
2.56,-1,-0.86,-1.56,0.75,-0.22,-0.06
2.56,-1,-0.86,-1.56,0.69,-0.25,0.01
2.56,-1,-0.86,-1.56,0.68,-0.25,0.01
2.561,-1,-0.86,-1.56,0.68,-0.25,0.01
2.561,-1,-0.86,-1.56,0.68,-0.25,0.01
2.561,-1,-0.86,-1.56,0.68,-0.25,0.01
2.561,-1,-0.86,-1.56,0.68,-0.25,0.01
2.561,-1,-0.86,-1.56,0.67,-0.25,0.02
2.561,-0.88,-0.79,-1.37,0.67,-0.25,0.02
2.562,-0.89,-0.82,-1.3,0.67,-0.25,0.02
2.562,-0.9,-0.85,-1.24,0.67,-0.25,0.02
2.562,-0.9,-0.85,-1.24,0.67,-0.24,0.02
2.564,-0.9,-0.85,-1.24,0.66,-0.24,0.03
2.569,-0.9,-0.85,-1.24,0.66,-0.23,0.03
2.569,-0.75,-0.77,-1.02,0.66,-0.23,0.03
2.569,-0.75,-0.77,-1.02,0.66,-0.23,0.02
2.57,-0.75,-0.77,-1.02,0.66,-0.22,0.02
2.572,-0.75,-0.77,-1.02,0.66,-0.21,0.02
2.574,-0.75,-0.77,-1.02,0.65,-0.19,0
2.577,-0.75,-0.77,-1.02,0.64,-0.18,-0.01
2.577,-0.56,-0.79,-0.91,0.64,-0.18,-0.01
2.578,-0.56,-0.79,-0.91,0.62,-0.16,-0.02
2.58,-0.56,-0.79,-0.91,0.61,-0.13,-0.03
2.582,-0.56,-0.79,-0.91,0.58,-0.1,-0.04
2.584,-0.56,-0.79,-0.91,0.57,-0.08,-0.05
2.6,-0.56,-0.79,-0.91,0.53,-0.04,-0.05
2.6,-0.56,-0.79,-0.91,0.35,0.17,-0.06
2.6,-0.56,-0.79,-0.91,0.35,0.17,-0.06
2.6,-0.56,-0.79,-0.91,0.35,0.17,-0.06
2.601,-0.56,-0.79,-0.91,0.32,0.2,-0.05
2.601,-0.56,-0.79,-0.91,0.32,0.2,-0.05
2.601,-0.56,-0.79,-0.91,0.3,0.22,-0.05
2.601,-0.45,-0.65,-1.13,0.3,0.22,-0.05
2.601,-0.44,-0.69,-1.07,0.3,0.22,-0.05
2.602,-0.44,-0.69,-1.07,0.25,0.28,-0.05
2.602,-0.44,-0.69,-1.07,0.21,0.33,-0.04
2.604,-0.44,-0.69,-1.07,0.17,0.37,-0.03
2.608,-0.42,-0.7,-1.04,0.17,0.37,-0.03
2.61,-0.42,-0.7,-1.04,0.16,0.39,-0.03
2.61,-0.42,-0.7,-1.04,0.13,0.44,-0.02
2.611,-0.42,-0.7,-1.04,0.1,0.47,-0.01
2.612,-0.42,-0.7,-1.04,0.09,0.5,0
2.614,-0.42,-0.7,-1.04,0.08,0.5,0.01
2.617,-0.42,-0.7,-1.04,0.07,0.52,0.02
2.617,-0.57,-0.7,-0.71,0.07,0.52,0.02
2.619,-0.57,-0.7,-0.71,0.06,0.53,0.04
2.62,-0.57,-0.7,-0.71,0.06,0.53,0.04
2.623,-0.57,-0.7,-0.71,0.06,0.53,0.06
2.624,-0.57,-0.7,-0.71,0.06,0.53,0.07
2.64,-0.57,-0.7,-0.71,0.07,0.51,0.08
2.64,-0.57,-0.7,-0.71,0.11,0.37,0.12
2.641,-0.57,-0.7,-0.71,0.11,0.37,0.12
2.641,-0.57,-0.7,-0.71,0.12,0.35,0.12
2.641,-0.57,-0.7,-0.71,0.13,0.32,0.12
2.641,-0.57,-0.7,-0.71,0.13,0.32,0.12
2.641,-0.57,-0.7,-0.71,0.13,0.32,0.12
2.642,-0.57,-0.7,-0.71,0.15,0.26,0.13
2.642,-0.69,-0.74,0.18,0.15,0.26,0.13
2.642,-0.67,-0.74,0.17,0.15,0.26,0.13
2.642,-0.67,-0.75,0.17,0.15,0.26,0.13
2.642,-0.67,-0.75,0.17,0.16,0.24,0.13
2.644,-0.67,-0.75,0.17,0.18,0.17,0.13
2.649,-0.67,-0.75,0.17,0.2,0.11,0.13
2.649,-0.67,-0.75,0.17,0.23,0.05,0.14
2.649,-0.67,-0.74,0.4,0.23,0.05,0.14
2.65,-0.67,-0.74,0.4,0.25,0.02,0.13
2.652,-0.67,-0.74,0.4,0.27,-0.04,0.14
2.654,-0.67,-0.74,0.4,0.29,-0.1,0.14
2.657,-0.67,-0.74,0.4,0.3,-0.15,0.14
2.657,-0.66,-0.71,0.54,0.3,-0.15,0.14
2.658,-0.66,-0.71,0.54,0.31,-0.17,0.14
2.66,-0.66,-0.71,0.54,0.32,-0.21,0.14
2.662,-0.66,-0.71,0.54,0.32,-0.25,0.15
2.665,-0.66,-0.71,0.54,0.31,-0.26,0.14
2.68,-0.66,-0.71,0.54,0.3,-0.28,0.15
2.68,-0.66,-0.71,0.54,0.19,-0.3,0.15
2.68,-0.66,-0.71,0.54,0.18,-0.29,0.15
2.68,-0.66,-0.71,0.54,0.16,-0.29,0.15
2.681,-0.66,-0.71,0.54,0.16,-0.29,0.15
2.681,-0.66,-0.71,0.54,0.16,-0.29,0.15
2.681,-0.66,-0.71,0.54,0.16,-0.29,0.15
2.681,-0.59,-0.59,0.27,0.16,-0.29,0.15
2.681,-0.62,-0.6,0.3,0.16,-0.29,0.15
2.682,-0.64,-0.6,0.33,0.16,-0.29,0.15
2.682,-0.64,-0.6,0.33,0.15,-0.28,0.15
2.682,-0.64,-0.6,0.33,0.11,-0.25,0.15
2.684,-0.64,-0.6,0.33,0.08,-0.23,0.14
2.688,-0.64,-0.6,0.33,0.06,-0.21,0.14
2.688,-0.64,-0.6,0.33,0.03,-0.18,0.14
2.688,-0.55,-0.49,0.12,0.03,-0.18,0.14
2.69,-0.55,-0.49,0.12,0,-0.15,0.13
2.692,-0.55,-0.49,0.12,-0.03,-0.12,0.12
2.694,-0.55,-0.49,0.12,-0.05,-0.1,0.12
2.697,-0.55,-0.49,0.12,-0.08,-0.08,0.11
2.697,-0.49,-0.45,0.14,-0.08,-0.08,0.11
2.698,-0.49,-0.45,0.14,-0.1,-0.05,0.11
2.702,-0.49,-0.45,0.14,-0.13,-0.03,0.1
2.703,-0.49,-0.45,0.14,-0.14,-0.02,0.1
2.705,-0.49,-0.45,0.14,-0.17,0,0.09
2.72,-0.49,-0.45,0.14,-0.19,0.02,0.08
2.721,-0.49,-0.45,0.14,-0.22,0.08,0.05
2.721,-0.49,-0.45,0.14,-0.22,0.08,0.05
2.721,-0.49,-0.45,0.14,-0.22,0.08,0.05
2.721,-0.49,-0.45,0.14,-0.21,0.08,0.04
2.722,-0.49,-0.45,0.14,-0.21,0.09,0.04
2.722,-0.49,-0.45,0.14,-0.21,0.09,0.04
2.722,-0.36,-0.5,0.77,-0.21,0.09,0.04
2.722,-0.36,-0.48,0.73,-0.21,0.09,0.04
2.722,-0.36,-0.48,0.73,-0.2,0.09,0.04
2.723,-0.36,-0.48,0.73,-0.19,0.09,0.03
2.724,-0.36,-0.48,0.73,-0.18,0.09,0.02
2.728,-0.36,-0.48,0.73,-0.16,0.1,0.02
2.728,-0.35,-0.52,0.95,-0.16,0.1,0.02
2.728,-0.35,-0.52,0.95,-0.13,0.09,0.02
2.73,-0.35,-0.52,0.95,-0.12,0.09,0.01
2.732,-0.35,-0.52,0.95,-0.1,0.09,0.01
2.735,-0.35,-0.52,0.95,-0.07,0.08,0.01
2.737,-0.35,-0.52,0.95,-0.06,0.08,0.02
2.737,-0.4,-0.57,1.13,-0.06,0.08,0.02
2.738,-0.4,-0.57,1.13,-0.04,0.07,0.02
2.74,-0.4,-0.57,1.13,-0.03,0.07,0.02
2.742,-0.4,-0.57,1.13,0,0.07,0.02
2.744,-0.4,-0.57,1.13,0.01,0.06,0.03
2.76,-0.4,-0.57,1.13,0.02,0.06,0.03
2.76,-0.4,-0.57,1.13,0.06,0.05,0.04
2.76,-0.4,-0.57,1.13,0.06,0.05,0.04
2.761,-0.4,-0.57,1.13,0.06,0.05,0.04
2.761,-0.4,-0.57,1.13,0.06,0.05,0.04
2.761,-0.4,-0.57,1.13,0.06,0.05,0.04
2.761,-0.4,-0.57,1.13,0.06,0.05,0.04
2.761,-0.57,-0.61,1.11,0.06,0.05,0.04
2.761,-0.57,-0.61,1.11,0.06,0.05,0.04
2.762,-0.57,-0.61,1.11,0.06,0.05,0.04
2.762,-0.57,-0.61,1.11,0.06,0.05,0.05
2.764,-0.57,-0.61,1.11,0.06,0.05,0.05
2.769,-0.57,-0.61,1.11,0.05,0.04,0.05
2.77,-0.61,-0.6,1.05,0.05,0.04,0.05
2.77,-0.61,-0.6,1.05,0.05,0.04,0.05
2.77,-0.61,-0.6,1.05,0.05,0.04,0.06
2.774,-0.61,-0.6,1.05,0.05,0.03,0.06
2.774,-0.61,-0.6,1.05,0.05,0.03,0.06
2.778,-0.61,-0.6,1.05,0.06,0.03,0.06
2.778,-0.62,-0.58,1.02,0.06,0.03,0.06
2.778,-0.62,-0.58,1.02,0.06,0.02,0.07
2.78,-0.62,-0.58,1.02,0.06,0.02,0.07
2.782,-0.62,-0.58,1.02,0.06,0.01,0.07
2.784,-0.62,-0.58,1.02,0.06,0,0.07
2.8,-0.62,-0.58,1.02,0.06,0,0.07
2.801,-0.62,-0.58,1.02,0.05,-0.04,0.07
2.801,-0.62,-0.58,1.02,0.04,-0.05,0.07
2.801,-0.62,-0.58,1.02,0.04,-0.05,0.07
2.801,-0.62,-0.58,1.02,0.04,-0.05,0.07
2.801,-0.62,-0.58,1.02,0.04,-0.05,0.07
2.802,-0.62,-0.58,1.02,0.04,-0.06,0.07
2.802,-0.64,-0.51,0.97,0.04,-0.06,0.07
2.802,-0.64,-0.5,0.96,0.04,-0.06,0.07
2.803,-0.65,-0.5,0.96,0.04,-0.06,0.07
2.803,-0.65,-0.5,0.96,0.04,-0.06,0.07
2.805,-0.65,-0.5,0.96,0.03,-0.07,0.07
2.805,-0.65,-0.5,0.96,0.03,-0.08,0.08
2.807,-0.65,-0.5,0.96,0.02,-0.08,0.08
2.808,-0.63,-0.45,0.9,0.02,-0.08,0.08
2.808,-0.63,-0.45,0.9,0.01,-0.09,0.08
2.812,-0.63,-0.45,0.9,0.01,-0.1,0.08
2.812,-0.63,-0.45,0.9,0.01,-0.1,0.08
2.815,-0.63,-0.45,0.9,0,-0.1,0.08
2.821,-0.63,-0.45,0.9,-0.01,-0.1,0.09
2.823,-0.6,-0.43,0.86,-0.01,-0.1,0.09
2.823,-0.6,-0.43,0.86,-0.01,-0.1,0.09
2.824,-0.6,-0.43,0.86,-0.02,-0.1,0.09
2.824,-0.6,-0.43,0.86,-0.02,-0.1,0.09
2.825,-0.6,-0.43,0.86,-0.03,-0.1,0.08
2.84,-0.6,-0.43,0.86,-0.03,-0.1,0.08
2.84,-0.6,-0.43,0.86,-0.05,-0.08,0.07
2.841,-0.6,-0.43,0.86,-0.05,-0.08,0.07
2.841,-0.6,-0.43,0.86,-0.05,-0.08,0.07
2.841,-0.6,-0.43,0.86,-0.05,-0.08,0.07
2.841,-0.6,-0.43,0.86,-0.05,-0.07,0.07
2.841,-0.6,-0.43,0.86,-0.05,-0.07,0.07
2.842,-0.6,-0.43,0.86,-0.06,-0.07,0.07
2.842,-0.45,-0.47,0.87,-0.06,-0.07,0.07
2.842,-0.47,-0.46,0.85,-0.06,-0.07,0.07
2.842,-0.47,-0.46,0.85,-0.06,-0.06,0.07
2.844,-0.47,-0.46,0.85,-0.06,-0.06,0.07
2.848,-0.47,-0.46,0.85,-0.07,-0.05,0.07
2.848,-0.47,-0.46,0.85,-0.07,-0.05,0.07
2.848,-0.5,-0.47,0.94,-0.07,-0.05,0.07
2.85,-0.5,-0.47,0.94,-0.07,-0.04,0.07
2.854,-0.5,-0.47,0.94,-0.07,-0.02,0.07
2.854,-0.5,-0.47,0.94,-0.08,-0.01,0.07
2.857,-0.5,-0.47,0.94,-0.07,0,0.07
2.857,-0.43,-0.42,0.98,-0.07,0,0.07
2.858,-0.43,-0.42,0.98,-0.08,0.01,0.07
2.86,-0.43,-0.42,0.98,-0.08,0.02,0.07
2.862,-0.43,-0.42,0.98,-0.08,0.02,0.07
2.865,-0.43,-0.42,0.98,-0.08,0.03,0.07
2.88,-0.43,-0.42,0.98,-0.07,0.03,0.07
2.88,-0.43,-0.42,0.98,-0.07,0.03,0.06
2.88,-0.43,-0.42,0.98,-0.07,0.03,0.06
2.881,-0.43,-0.42,0.98,-0.07,0.03,0.06
2.881,-0.43,-0.42,0.98,-0.07,0.03,0.06
2.881,-0.43,-0.42,0.98,-0.07,0.03,0.05
2.881,-0.43,-0.42,0.98,-0.07,0.03,0.05
2.882,-0.42,-0.3,1.11,-0.07,0.03,0.05
2.882,-0.42,-0.29,1.08,-0.07,0.03,0.05
2.882,-0.42,-0.29,1.08,-0.06,0.02,0.05
2.883,-0.42,-0.29,1.08,-0.06,0.01,0.06
2.889,-0.42,-0.29,1.08,-0.06,0.01,0.06
2.889,-0.42,-0.29,1.08,-0.05,0,0.06
2.89,-0.64,-0.37,1.16,-0.05,0,0.06
2.89,-0.64,-0.37,1.16,-0.05,-0.01,0.07
2.89,-0.64,-0.37,1.16,-0.04,-0.01,0.07
2.895,-0.64,-0.37,1.16,-0.03,-0.01,0.08
2.896,-0.64,-0.37,1.16,-0.03,-0.02,0.08
2.898,-0.64,-0.37,1.16,-0.02,-0.02,0.1
2.898,-0.92,-0.46,1.14,-0.02,-0.02,0.1
2.9,-0.92,-0.46,1.14,-0.02,-0.03,0.1
2.9,-0.92,-0.46,1.14,-0.01,-0.04,0.11
2.903,-0.92,-0.46,1.14,0,-0.05,0.12
2.904,-0.92,-0.46,1.14,0.01,-0.06,0.13
2.922,-0.92,-0.46,1.14,0.01,-0.07,0.14
2.923,-0.92,-0.46,1.14,0.06,-0.14,0.19
2.924,-0.92,-0.46,1.14,0.07,-0.16,0.19
2.924,-0.92,-0.46,1.14,0.07,-0.16,0.2
2.924,-0.92,-0.46,1.14,0.07,-0.16,0.2
2.924,-0.92,-0.46,1.14,0.07,-0.16,0.2
2.925,-0.92,-0.46,1.14,0.07,-0.16,0.2
2.925,-0.92,-0.46,1.14,0.08,-0.18,0.2
2.925,-0.92,-0.46,1.14,0.09,-0.19,0.21
2.925,-1,-0.52,1.06,0.09,-0.19,0.21
2.926,-1.01,-0.52,1.06,0.09,-0.19,0.21
2.926,-1.02,-0.51,1.06,0.09,-0.19,0.21
2.926,-1.02,-0.51,1.06,0.09,-0.21,0.21
2.928,-1.02,-0.51,1.06,0.1,-0.24,0.22
2.928,-1.02,-0.51,1.06,0.1,-0.25,0.23
2.928,-0.97,-0.5,0.92,0.1,-0.25,0.23
2.931,-0.97,-0.5,0.92,0.1,-0.26,0.23
2.933,-0.97,-0.5,0.92,0.11,-0.28,0.24
2.936,-0.97,-0.5,0.92,0.11,-0.29,0.25
2.937,-0.97,-0.5,0.92,0.11,-0.3,0.25
2.938,-0.66,-0.38,0.58,0.11,-0.3,0.25
2.939,-0.66,-0.38,0.58,0.12,-0.31,0.26
2.94,-0.66,-0.38,0.58,0.12,-0.32,0.27
2.943,-0.66,-0.38,0.58,0.13,-0.32,0.28
2.944,-0.66,-0.38,0.58,0.13,-0.33,0.29
2.959,-0.66,-0.38,0.58,0.13,-0.33,0.29
2.96,-0.66,-0.38,0.58,0.13,-0.34,0.31
2.963,-0.66,-0.38,0.58,0.13,-0.34,0.31
2.964,-0.66,-0.38,0.58,0.13,-0.34,0.31
2.964,-0.66,-0.38,0.58,0.13,-0.34,0.31
2.964,-0.66,-0.38,0.58,0.13,-0.33,0.31
2.964,-0.66,-0.38,0.58,0.13,-0.33,0.3
2.964,0.08,-0.04,0.14,0.13,-0.33,0.3
2.965,0,-0.04,0.17,0.13,-0.33,0.3
2.965,0,-0.04,0.17,0.12,-0.32,0.3
2.965,0,-0.04,0.17,0.11,-0.31,0.29
2.965,0,-0.04,0.17,0.1,-0.29,0.28
2.97,0,-0.04,0.17,0.09,-0.28,0.28
2.97,0,-0.04,0.17,0.07,-0.26,0.27
2.97,0.3,0.04,-0.1,0.07,-0.26,0.27
2.971,0.3,0.04,-0.1,0.05,-0.23,0.26
2.973,0.3,0.04,-0.1,0.04,-0.22,0.26
2.974,0.3,0.04,-0.1,0.02,-0.19,0.25
2.977,0.3,0.04,-0.1,0.01,-0.16,0.23
2.977,0.53,0.1,-0.31,0.01,-0.16,0.23
2.978,0.53,0.1,-0.31,-0.02,-0.14,0.23
2.981,0.53,0.1,-0.31,-0.03,-0.12,0.22
2.982,0.53,0.1,-0.31,-0.06,-0.09,0.2
2.984,0.53,0.1,-0.31,-0.08,-0.06,0.19
3,0.53,0.1,-0.31,-0.09,-0.03,0.17
3.001,0.53,0.1,-0.31,-0.14,0.06,0.12
3.001,0.53,0.1,-0.31,-0.14,0.06,0.12
3.002,0.53,0.1,-0.31,-0.14,0.07,0.11
3.002,0.53,0.1,-0.31,-0.14,0.08,0.11
3.002,0.53,0.1,-0.31,-0.14,0.08,0.11
3.002,0.53,0.1,-0.31,-0.14,0.08,0.11
3.003,0.75,-0.02,0.47,-0.14,0.08,0.11
3.003,0.72,0,0.45,-0.14,0.08,0.11
3.004,0.72,0.02,0.44,-0.14,0.08,0.11
3.004,0.72,0.02,0.44,-0.13,0.09,0.1
3.004,0.72,0.02,0.44,-0.13,0.1,0.09
3.005,0.72,0.02,0.44,-0.12,0.11,0.08
3.007,0.72,0.02,0.44,-0.11,0.12,0.06
3.008,0.76,-0.09,0.89,-0.11,0.12,0.06
3.008,0.76,-0.09,0.89,-0.09,0.13,0.05
3.01,0.76,-0.09,0.89,-0.08,0.13,0.04
3.012,0.76,-0.09,0.89,-0.07,0.13,0.03
3.014,0.76,-0.09,0.89,-0.04,0.13,0.02
3.018,0.76,-0.09,0.89,-0.04,0.13,0.01
3.018,0.67,-0.14,1.19,-0.04,0.13,0.01
3.019,0.67,-0.14,1.19,-0.01,0.13,0.01
3.021,0.67,-0.14,1.19,0.01,0.13,0
3.023,0.67,-0.14,1.19,0.03,0.13,-0.01
3.024,0.67,-0.14,1.19,0.05,0.12,-0.01
3.04,0.67,-0.14,1.19,0.07,0.12,-0.01
3.04,0.67,-0.14,1.19,0.15,0.08,-0.01
3.04,0.67,-0.14,1.19,0.15,0.08,-0.01
3.041,0.67,-0.14,1.19,0.15,0.07,-0.01
3.041,0.67,-0.14,1.19,0.16,0.07,-0.01
3.041,0.67,-0.14,1.19,0.16,0.07,-0.01
3.041,0.67,-0.14,1.19,0.16,0.07,-0.01
3.042,0.05,-0.15,0.66,0.16,0.07,-0.01
3.042,0.06,-0.15,0.67,0.16,0.07,-0.01
3.042,0.06,-0.15,0.67,0.16,0.07,-0.01
3.042,0.06,-0.15,0.67,0.17,0.05,-0.01
3.044,0.06,-0.15,0.67,0.17,0.03,0
3.049,0.06,-0.15,0.67,0.17,0.03,0
3.049,-0.07,-0.08,0.19,0.17,0.03,0
3.05,-0.07,-0.08,0.19,0.17,0.02,0.01
3.051,-0.07,-0.08,0.19,0.17,0.01,0.01
3.053,-0.07,-0.08,0.19,0.17,0,0.02
3.055,-0.07,-0.08,0.19,0.17,-0.01,0.02
3.058,-0.07,-0.08,0.19,0.16,-0.01,0.03
3.058,-0.28,-0.05,-0.25,0.16,-0.01,0.03
3.058,-0.28,-0.05,-0.25,0.14,-0.01,0.03
3.06,-0.28,-0.05,-0.25,0.14,-0.01,0.04
3.062,-0.28,-0.05,-0.25,0.12,-0.01,0.05
3.064,-0.28,-0.05,-0.25,0.11,0,0.06
3.079,-0.28,-0.05,-0.25,0.1,0,0.07
3.079,-0.28,-0.05,-0.25,0.04,0.02,0.09
3.08,-0.28,-0.05,-0.25,0.04,0.02,0.09
3.08,-0.28,-0.05,-0.25,0.04,0.02,0.09
3.08,-0.28,-0.05,-0.25,0.04,0.02,0.09
3.08,-0.28,-0.05,-0.25,0.03,0.01,0.09
3.081,-0.28,-0.05,-0.25,0.02,0.01,0.09
3.081,-0.18,0.03,-0.52,0.02,0.01,0.09
3.081,-0.19,0.03,-0.51,0.02,0.01,0.09
3.081,-0.19,0.03,-0.51,0.01,0,0.09
3.088,-0.19,0.03,-0.51,0.01,0,0.09
3.088,-0.19,0.03,-0.51,0,-0.02,0.09
3.088,-0.19,0.03,-0.51,-0.01,-0.03,0.09
3.089,-0.07,0,-0.26,-0.01,-0.03,0.09
3.089,-0.07,0,-0.26,-0.02,-0.04,0.1
3.09,-0.07,0,-0.26,-0.02,-0.04,0.1
3.094,-0.07,0,-0.26,-0.02,-0.06,0.1
3.094,-0.07,0,-0.26,-0.02,-0.07,0.1
3.097,-0.07,0,-0.26,-0.02,-0.08,0.1
