time,ax,ay,az,wx,wy,wz
0.001,-0.03,-0.01,0.05,-0.06,-0.13,0
0.002,-0.03,-0.01,0.05,-0.06,-0.12,0
0.002,-0.03,-0.01,0.05,-0.06,-0.12,0
0.002,-0.03,-0.01,0.05,-0.06,-0.12,0
0.002,-0.03,-0.01,0.05,-0.06,-0.11,0
0.002,-0.03,-0.01,0.05,-0.06,-0.11,0
0.002,-0.03,-0.01,0.05,-0.06,-0.11,0
0.003,0.06,0.03,0.34,-0.06,-0.11,0
0.003,0.04,0.04,0.34,-0.06,-0.11,0
0.003,0.04,0.04,0.34,-0.05,-0.1,0
0.003,0.04,0.04,0.34,-0.05,-0.09,0
0.003,0.04,0.04,0.34,-0.04,-0.08,0
0.005,0.04,0.04,0.34,-0.03,-0.06,0
0.005,0.09,0,0.4,-0.03,-0.06,0
0.005,0.09,0,0.4,-0.03,-0.05,0
0.007,0.09,0,0.4,-0.02,-0.03,0
0.012,0.09,0,0.4,-0.01,-0.02,0
0.013,0.09,0,0.4,0,0,0
0.015,0.09,0,0.4,0,0.01,0
0.015,0.08,-0.03,0.37,0,0.01,0
0.016,0.08,-0.03,0.37,0.01,0.02,0
0.017,0.08,-0.03,0.37,0.02,0.03,0
0.019,0.08,-0.03,0.37,0.02,0.04,0
0.021,0.08,-0.03,0.37,0.03,0.05,0
0.037,0.08,-0.03,0.37,0.03,0.06,0
0.038,0.08,-0.03,0.37,0.04,0.07,0
0.038,0.08,-0.03,0.37,0.04,0.07,0
0.038,0.08,-0.03,0.37,0.04,0.08,0
0.038,0.08,-0.03,0.37,0.04,0.08,0
0.038,0.08,-0.03,0.37,0.03,0.07,0
0.038,0.08,-0.03,0.37,0.03,0.07,0
0.039,0.04,0.04,0.24,0.03,0.07,0
0.039,0.04,0.04,0.24,0.03,0.07,0
0.039,0.05,0.03,0.24,0.03,0.07,0
0.039,0.05,0.03,0.24,0.03,0.07,0
0.039,0.05,0.03,0.24,0.03,0.06,0
0.041,0.05,0.03,0.24,0.03,0.06,0
0.046,0.05,0.03,0.24,0.02,0.06,0
0.046,0.03,0.08,0.17,0.02,0.06,0
0.046,0.03,0.08,0.17,0.02,0.05,0
0.048,0.03,0.08,0.17,0.01,0.04,0
0.049,0.03,0.08,0.17,0.02,0.03,0
0.052,0.03,0.08,0.17,0.01,0.03,0
0.054,0.03,0.08,0.17,0.01,0.02,0
0.055,-0.01,0.07,0.1,0.01,0.02,0
0.055,-0.01,0.07,0.1,0,0.01,0
0.058,-0.01,0.07,0.1,0,0,0
0.06,-0.01,0.07,0.1,0,0,0
0.061,-0.01,0.07,0.1,-0.01,-0.02,0
0.077,-0.01,0.07,0.1,-0.01,-0.02,0
0.077,-0.01,0.07,0.1,-0.02,-0.05,0
0.077,-0.01,0.07,0.1,-0.02,-0.05,0
0.077,-0.01,0.07,0.1,-0.02,-0.05,0
0.078,-0.01,0.07,0.1,-0.02,-0.05,0
0.078,-0.01,0.07,0.1,-0.02,-0.05,0
0.078,-0.01,0.07,0.1,-0.02,-0.05,0
0.078,0.02,0,0.2,-0.02,-0.05,0
0.078,0.02,0,0.2,-0.02,-0.05,0
0.078,0.01,0,0.2,-0.02,-0.05,0
0.079,0.01,0,0.2,-0.02,-0.04,0
0.08,0.01,0,0.2,-0.03,-0.05,0
0.081,0.01,0,0.2,-0.02,-0.05,0
0.085,0.01,0,0.2,-0.02,-0.04,0
0.085,0.05,0,0.26,-0.02,-0.04,0
0.086,0.05,0,0.26,-0.02,-0.04,0
0.087,0.05,0,0.26,-0.02,-0.04,0
0.09,0.05,0,0.26,-0.02,-0.03,0
0.092,0.05,0,0.26,-0.01,-0.03,0
0.096,0.05,0,0.26,-0.01,-0.02,0
0.096,0.06,0.02,0.31,-0.01,-0.02,0
0.097,0.06,0.02,0.31,-0.01,-0.02,0
0.098,0.06,0.02,0.31,0,-0.01,0
0.101,0.06,0.02,0.31,0,-0.01,0
0.102,0.06,0.02,0.31,0,0,0
0.117,0.06,0.02,0.31,0,0,0
0.118,0.06,0.02,0.31,0.01,0.02,0
0.118,0.06,0.02,0.31,0.01,0.02,0
0.118,0.06,0.02,0.31,0.01,0.02,0
0.118,0.06,0.02,0.31,0.01,0.02,0
0.118,0.06,0.02,0.31,0.01,0.02,0
0.119,0.06,0.02,0.31,0.01,0.02,0
0.119,0.05,0.02,0.28,0.01,0.02,0
0.119,0.05,0.02,0.28,0.01,0.02,0
0.119,0.05,0.02,0.28,0.01,0.02,0
0.12,0.05,0.02,0.28,0.01,0.03,0
0.122,0.05,0.02,0.28,0.01,0.02,0
0.125,0.05,0.02,0.28,0.01,0.02,0
0.125,0.07,0.04,0.26,0.01,0.02,0
0.126,0.07,0.04,0.26,0.01,0.02,0
0.128,0.07,0.04,0.26,0.01,0.02,0
0.13,0.07,0.04,0.26,0.01,0.02,0
0.132,0.07,0.04,0.26,0.01,0.02,0
0.135,0.07,0.04,0.26,0.01,0.02,0
0.135,0.06,0.06,0.2,0.01,0.02,0
0.136,0.06,0.06,0.2,0.01,0.02,0
0.138,0.06,0.06,0.2,0,0.01,0
0.142,0.06,0.06,0.2,0.01,0.01,0
0.142,0.06,0.06,0.2,0,0.01,0
0.157,0.06,0.06,0.2,0,0.01,0
0.157,0.06,0.06,0.2,0,-0.01,0
0.158,0.06,0.06,0.2,-0.01,-0.01,0
0.158,0.06,0.06,0.2,-0.01,-0.01,0
0.158,0.06,0.06,0.2,-0.01,-0.01,0
0.158,0.06,0.06,0.2,-0.01,-0.01,0
0.158,0.06,0.06,0.2,-0.01,-0.01,0
0.159,0.03,0.01,0.2,-0.01,-0.01,0
0.159,0.03,0.01,0.2,-0.01,-0.01,0
0.159,0.03,0.01,0.2,-0.01,-0.01,0
0.159,0.03,0.01,0.2,-0.01,-0.01,0
0.16,0.03,0.01,0.2,-0.01,-0.01,0
0.162,0.03,0.01,0.2,-0.01,-0.01,0
0.166,0.03,0.01,0.2,-0.01,-0.01,0
0.166,0.02,-0.03,0.21,-0.01,-0.01,0
0.166,0.02,-0.03,0.21,-0.01,-0.01,0
0.168,0.02,-0.03,0.21,-0.01,-0.01,0
0.17,0.02,-0.03,0.21,-0.01,-0.01,0
0.172,0.02,-0.03,0.21,-0.01,-0.01,0
0.175,0.02,-0.03,0.21,0,-0.01,0
0.175,0,-0.05,0.25,0,-0.01,0
0.176,0,-0.05,0.25,-0.01,-0.01,0
0.18,0,-0.05,0.25,0,-0.01,0
0.181,0,-0.05,0.25,-0.01,-0.01,0
0.182,0,-0.05,0.25,0,-0.01,0
0.197,0,-0.05,0.25,0,-0.01,0
0.197,0,-0.05,0.25,0,0,0
0.197,0,-0.05,0.25,0,0,0
0.197,0,-0.05,0.25,0,0,0
0.197,0,-0.05,0.25,0,0,0
0.197,0,-0.05,0.25,0,0,0
0.197,0,-0.05,0.25,0,0.01,0
0.197,0.02,0.01,0.25,0,0.01,0
0.198,0.02,0.01,0.25,0,0.01,0
0.198,0.02,0.01,0.25,0,0.01,0
0.2,0.02,0.01,0.25,0.01,0.01,0
0.202,0.02,0.01,0.25,0.01,0.01,0
0.206,0.02,0.01,0.25,0.01,0.01,0
0.206,0.02,0.01,0.25,0.01,0.01,0
0.206,0.01,-0.01,0.23,0.01,0.01,0
0.208,0.01,-0.01,0.23,0,0.01,0
0.213,0.01,-0.01,0.23,0.01,0.01,0
0.213,0.01,-0.01,0.23,0.01,0.01,0
0.215,0.01,-0.01,0.23,0.01,0.01,0
0.215,0,0.01,0.23,0.01,0.01,0
0.216,0,0.01,0.23,0,0.01,0
0.219,0,0.01,0.23,0,0.01,0
0.22,0,0.01,0.23,0,0.01,0
0.222,0,0.01,0.23,0,0.01,0
0.237,0,0.01,0.23,0,0,0
0.238,0,0.01,0.23,0,0,0
0.238,0,0.01,0.23,0,0,0
0.238,0,0.01,0.23,0,0,0
0.238,0,0.01,0.23,0,0,0
0.238,0,0.01,0.23,0,0,0
0.239,0,0.01,0.23,0,0,0
0.239,0.02,0.05,0.22,0,0,0
0.239,0.02,0.05,0.22,0,0,0
0.239,0.02,0.05,0.22,0,0,0
0.239,0.02,0.05,0.22,0,0,0
0.24,0.02,0.05,0.22,0,0,0
0.242,0.02,0.05,0.22,0,0,0
0.245,0.02,0.05,0.22,0,-0.01,0
0.245,0.04,0.04,0.23,0,-0.01,0
0.245,0.04,0.04,0.23,0,0,0
0.248,0.04,0.04,0.23,-0.01,-0.01,0
0.25,0.04,0.04,0.23,0,-0.01,0
0.252,0.04,0.04,0.23,0,-0.01,0
0.255,0.04,0.04,0.23,-0.01,-0.01,0
0.255,0.05,0.01,0.24,-0.01,-0.01,0
0.256,0.05,0.01,0.24,0,-0.01,0
0.258,0.05,0.01,0.24,-0.01,-0.01,0
0.26,0.05,0.01,0.24,0,0,0
0.261,0.05,0.01,0.24,0,0,0
0.277,0.05,0.01,0.24,0,0,0
0.278,0.05,0.01,0.24,0,0,0
0.278,0.05,0.01,0.24,0,0,0
0.278,0.05,0.01,0.24,0,0,0
0.278,0.05,0.01,0.24,0,0,0
0.278,0.05,0.01,0.24,0,0,0
0.278,0.05,0.01,0.24,0,0,0
0.279,0.05,0.01,0.24,0,0,0
0.279,0.05,0.01,0.24,0,0,0
0.279,0.05,0.01,0.24,0,0,0
0.279,0.05,0.01,0.24,0,0,0
0.28,0.05,0.01,0.24,0,0,0
0.282,0.05,0.01,0.24,0,0,0
0.285,0.05,0.01,0.24,0,0,0
0.286,0.03,0.01,0.25,0,0,0
0.286,0.03,0.01,0.25,0,0,0
0.289,0.03,0.01,0.25,0,0,0
0.29,0.03,0.01,0.25,0,0,0
0.292,0.03,0.01,0.25,0,0,0
0.294,0.03,0.01,0.25,0,0,0
0.295,0.02,-0.01,0.25,0,0,0
0.296,0.02,-0.01,0.25,0,0,0
0.298,0.02,-0.01,0.25,0,0,0
0.3,0.02,-0.01,0.25,0,0,0
0.302,0.02,-0.01,0.25,0,0,0
0.317,0.02,-0.01,0.25,0.01,0,0
0.318,0.02,-0.01,0.25,0,0,0
0.318,0.02,-0.01,0.25,0,0,0
0.318,0.02,-0.01,0.25,0,0,0
0.318,0.02,-0.01,0.25,0,0,0
0.318,0.02,-0.01,0.25,0,0.01,0
0.319,0.02,-0.01,0.25,0,0,0
0.319,-0.02,0.02,0.25,0,0,0
0.319,-0.01,0.02,0.25,0,0,0
0.319,-0.01,0.02,0.25,0,0,0
0.32,-0.01,0.02,0.25,0,0,0
0.322,-0.01,0.02,0.25,0,0,0
0.325,-0.01,0.02,0.25,0,0,0
0.325,-0.01,0.04,0.23,0,0,0
0.325,-0.01,0.04,0.23,0,0,0
0.328,-0.01,0.04,0.23,0,0,0
0.331,-0.01,0.04,0.23,0,0,0
0.332,-0.01,0.04,0.23,0,0,0
0.335,-0.01,0.04,0.23,0,0,0
0.335,0,0.03,0.23,0,0,0
0.336,0,0.03,0.23,0,0,0
0.338,0,0.03,0.23,0,0,0
0.339,0,0.03,0.23,0,0,0
0.342,0,0.03,0.23,0,0,0
0.357,0,0.03,0.23,0,0,0
0.358,0,0.03,0.23,0,0,0
0.358,0,0.03,0.23,0,0,0
0.358,0,0.03,0.23,0,0,0
0.358,0,0.03,0.23,0,0,0
0.359,0,0.03,0.23,0,0,0
0.359,0,0.03,0.23,0,0,0
0.359,0.03,0.03,0.23,0,0,0
0.359,0.03,0.03,0.23,0,0,0
0.359,0.03,0.03,0.23,0,0,0
0.36,0.03,0.03,0.23,0,0,0
0.36,0.03,0.03,0.23,0,-0.01,0
0.362,0.03,0.03,0.23,0,0,0
0.366,0.03,0.03,0.23,0,0,0
0.366,0.06,0.04,0.24,0,0,0
0.367,0.06,0.04,0.24,0,-0.01,0
0.368,0.06,0.04,0.24,0,0,0
0.37,0.06,0.04,0.24,-0.01,0,0
0.372,0.06,0.04,0.24,0,-0.01,0
0.374,0.06,0.04,0.24,-0.01,-0.01,0
0.375,0.08,0.02,0.22,-0.01,-0.01,0
0.376,0.08,0.02,0.22,0,0,0
0.378,0.08,0.02,0.22,0,0,0
0.38,0.08,0.02,0.22,0,-0.01,0
0.382,0.08,0.02,0.22,0,0,0
0.397,0.08,0.02,0.22,-0.01,-0.01,0
0.398,0.08,0.02,0.22,0,0,0
0.398,0.08,0.02,0.22,0,0,0
0.398,0.08,0.02,0.22,0,0,0
0.398,0.08,0.02,0.22,0,0,0
0.398,0.08,0.02,0.22,0,0,0
0.399,0.08,0.02,0.22,0,0,0
0.399,0.09,-0.01,0.21,0,0,0
0.399,0.09,-0.01,0.21,0,0,0
0.399,0.09,-0.01,0.21,0,0,0
0.4,0.09,-0.01,0.21,0,0,0
0.402,0.09,-0.01,0.21,0,0,0
0.405,0.09,-0.01,0.21,0,0,0
0.406,0.05,-0.02,0.21,0,0,0
0.406,0.05,-0.02,0.21,0,0,0
0.408,0.05,-0.02,0.21,0.01,0,0
0.41,0.05,-0.02,0.21,0,0,0
0.411,0.05,-0.02,0.21,0,0,0
0.415,0.05,-0.02,0.21,0,0.01,0
0.415,0.03,0.01,0.22,0,0.01,0
0.416,0.03,0.01,0.22,0,0.01,0
0.418,0.03,0.01,0.22,0,0.01,0
0.42,0.03,0.01,0.22,0,0.01,0
0.422,0.03,0.01,0.22,0.01,0.01,0
0.437,0.03,0.01,0.22,0.01,0.01,0
0.437,0.03,0.01,0.22,0.01,0.01,0
0.438,0.03,0.01,0.22,0.01,0.01,0
0.438,0.03,0.01,0.22,0.01,0.01,0
0.438,0.03,0.01,0.22,0.01,0.01,0
0.438,0.03,0.01,0.22,0,0.01,0
0.438,0.03,0.01,0.22,0,0.01,0
0.439,-0.03,0,0.23,0,0.01,0
0.439,-0.03,0,0.23,0,0.01,0
0.439,-0.03,0,0.23,0,0.01,0
0.439,-0.03,0,0.23,0.01,0.01,0
0.44,-0.03,0,0.23,0,0.01,0
0.442,-0.03,0,0.23,0,0.01,0
0.445,-0.03,0,0.23,0,0.01,0
0.445,-0.03,0,0.22,0,0.01,0
0.446,-0.03,0,0.22,0.01,0.01,0
0.448,-0.03,0,0.22,0,0.01,0
0.45,-0.03,0,0.22,0.01,0,0
0.452,-0.03,0,0.22,0,0,0
0.455,-0.03,0,0.22,0,0,0
0.455,-0.04,0.01,0.22,0,0,0
0.456,-0.04,0.01,0.22,0,0,0
0.458,-0.04,0.01,0.22,0,0,0
0.461,-0.04,0.01,0.22,0,0,0
0.461,-0.04,0.01,0.22,0,0,0
0.477,-0.04,0.01,0.22,0,0,0
0.477,-0.04,0.01,0.22,0,-0.01,0
0.478,-0.04,0.01,0.22,0,-0.01,0
0.478,-0.04,0.01,0.22,0,-0.01,0
0.478,-0.04,0.01,0.22,0,-0.01,0
0.478,-0.04,0.01,0.22,0,-0.01,0
0.478,-0.04,0.01,0.22,0,-0.01,0
0.479,0.03,0.04,0.22,0,-0.01,0
0.479,0.03,0.04,0.22,0,-0.01,0
0.479,0.02,0.04,0.22,0,-0.01,0
0.479,0.02,0.04,0.22,0,-0.01,0
0.48,0.02,0.04,0.22,0,-0.01,0
0.482,0.02,0.04,0.22,0,-0.01,0
0.485,0.02,0.04,0.22,-0.01,-0.01,0
0.485,0.06,0.01,0.23,-0.01,-0.01,0
0.486,0.06,0.01,0.23,-0.01,-0.01,0
0.488,0.06,0.01,0.23,0,-0.01,0
0.49,0.06,0.01,0.23,0,-0.01,0
0.492,0.06,0.01,0.23,0,-0.01,0
0.497,0.06,0.01,0.23,0,-0.01,0
0.497,0.1,0.03,0.23,0,-0.01,0
0.497,0.1,0.03,0.23,0,-0.01,0
0.498,0.1,0.03,0.23,-0.01,-0.01,0
0.5,0.1,0.03,0.23,-0.01,-0.01,0
0.502,0.1,0.03,0.23,0,0,0
0.517,0.1,0.03,0.23,0,0,0
0.518,0.1,0.03,0.23,0,0,0
0.518,0.1,0.03,0.23,0,0,0
0.518,0.1,0.03,0.23,0,0,0
0.518,0.1,0.03,0.23,0,0,0
0.519,0.1,0.03,0.23,0,0,0
0.519,0.1,0.03,0.23,0,0,0
0.519,0.08,0.01,0.24,0,0,0
0.519,0.08,0.01,0.24,0,0,0
0.52,0.08,0.01,0.24,0,0,0
0.52,0.08,0.01,0.24,0,0,0
0.52,0.08,0.01,0.24,0,0.01,0
0.522,0.08,0.01,0.24,0,0,0
0.525,0.08,0.01,0.24,0,0,0
0.526,0.05,0,0.21,0,0,0
0.526,0.05,0,0.21,0,0.01,0
0.528,0.05,0,0.21,0,0.01,0
0.53,0.05,0,0.21,0,0.01,0
0.532,0.05,0,0.21,0,0.01,0
0.535,0.05,0,0.21,0.01,0.01,0
0.535,-0.01,0.01,0.21,0.01,0.01,0
0.536,-0.01,0.01,0.21,0,0.01,0
0.538,-0.01,0.01,0.21,0,0.01,0
0.54,-0.01,0.01,0.21,0,0.01,0
0.542,-0.01,0.01,0.21,0,0.01,0
0.556,-0.01,0.01,0.21,0,0.01,0
0.557,-0.01,0.01,0.21,0,0,0
0.557,-0.01,0.01,0.21,0,0,0
0.557,-0.01,0.01,0.21,0,0,0
0.557,-0.01,0.01,0.21,0,0,0
0.558,-0.01,0.01,0.21,0,0,0
0.558,-0.01,0.01,0.21,0.01,0.01,0
0.558,-0.05,0.02,0.18,0.01,0.01,0
0.559,-0.04,0.02,0.18,0.01,0.01,0
0.559,-0.04,0.02,0.18,0,0.01,0
0.559,-0.04,0.02,0.18,0,0.01,0
0.564,-0.04,0.02,0.18,0,0.01,0
0.565,-0.04,0.02,0.18,0,0,0
0.566,-0.05,0.01,0.24,0,0,0
0.566,-0.05,0.01,0.24,0,0,0
0.568,-0.05,0.01,0.24,0,0,0
0.57,-0.05,0.01,0.24,0,0,0
0.572,-0.05,0.01,0.24,0,0,0
0.575,-0.05,0.01,0.24,0,0,0
0.575,-0.01,0,0.27,0,0,0
0.575,-0.01,0,0.27,0,0,0
0.578,-0.01,0,0.27,0,0,0
0.58,-0.01,0,0.27,0,0,0
0.582,-0.01,0,0.27,0,0,0
0.597,-0.01,0,0.27,0,-0.01,0
0.597,-0.01,0,0.27,-0.01,-0.01,0
0.598,-0.01,0,0.27,-0.01,-0.01,0
0.598,-0.01,0,0.27,-0.01,-0.01,0
0.598,-0.01,0,0.27,-0.01,-0.01,0
0.598,-0.01,0,0.27,0,-0.01,0
0.599,-0.01,0,0.27,0,-0.01,0
0.599,0.06,-0.01,0.24,0,-0.01,0
0.599,0.06,-0.01,0.24,0,-0.01,0
0.599,0.06,-0.01,0.24,0,-0.01,0
0.604,0.06,-0.01,0.24,-0.01,-0.01,0
0.604,0.06,-0.01,0.24,0,-0.01,0
0.605,0.06,-0.01,0.24,0,-0.01,0
0.605,0.06,0,0.25,0,-0.01,0
0.605,0.06,0,0.25,0,-0.01,0
0.607,0.06,0,0.25,0,-0.01,0
0.61,0.06,0,0.25,0,-0.01,0
0.612,0.06,0,0.25,0,0,0
0.616,0.06,0,0.25,0,0,0
0.616,0.07,0,0.24,0,0,0
0.616,0.07,0,0.24,0,0,0
0.618,0.07,0,0.24,0,0,0
0.62,0.07,0,0.24,0,0,0
0.622,0.07,0,0.24,0,0,0
0.637,0.07,0,0.24,0,0,0
0.638,0.07,0,0.24,0,0.01,0
0.638,0.07,0,0.24,0,0.01,0
0.638,0.07,0,0.24,0,0.01,0
0.639,0.07,0,0.24,0,0.01,0
0.639,0.07,0,0.24,0,0.01,0
0.639,0.07,0,0.24,0,0.01,0
0.639,0.04,0.03,0.27,0,0.01,0
0.639,0.04,0.03,0.27,0,0.01,0
0.64,0.04,0.03,0.27,0,0.01,0
0.64,0.04,0.03,0.27,0,0.01,0
0.64,0.04,0.03,0.27,0,0.01,0
0.642,0.04,0.03,0.27,0,0.01,0
0.646,0.04,0.03,0.27,0.01,0.01,0
0.646,0.02,0.03,0.24,0.01,0.01,0
0.646,0.02,0.03,0.24,0.01,0.01,0
0.648,0.02,0.03,0.24,0,0.01,0
0.649,0.02,0.03,0.24,0,0.01,0
0.652,0.02,0.03,0.24,0,0.01,0
0.655,0.02,0.03,0.24,0,0,0
0.656,-0.04,0,0.2,0,0,0
0.656,-0.04,0,0.2,0.01,0.01,0
0.658,-0.04,0,0.2,0,0.01,0
0.661,-0.04,0,0.2,0,0.01,0
0.662,-0.04,0,0.2,0,0,0
0.677,-0.04,0,0.2,0,0,0
0.677,-0.04,0,0.2,0,0,0
0.68,-0.04,0,0.2,0,0,0
0.68,-0.04,0,0.2,0,0,0
0.681,-0.04,0,0.2,0,0,0
0.681,-0.04,0,0.2,0,0,0
0.681,-0.04,0,0.2,0,0,0
0.681,-0.02,-0.01,0.2,0,0,0
0.682,-0.02,-0.01,0.2,0,0,0
0.682,-0.02,-0.01,0.2,0,0,0
0.682,-0.02,-0.01,0.2,0,0,0
0.682,-0.02,-0.01,0.2,0,-0.01,0
0.685,-0.02,-0.01,0.2,0,-0.01,0
0.686,0.01,-0.02,0.2,0,-0.01,0
0.686,0.01,-0.02,0.2,0,0,0
0.687,0.01,-0.02,0.2,0,-0.01,0
0.69,0.01,-0.02,0.2,0,-0.01,0
0.692,0.01,-0.02,0.2,0,-0.01,0
0.698,0.01,-0.02,0.2,0,-0.01,0
0.699,0.01,-0.02,0.2,-0.01,-0.01,0
0.699,0,-0.01,0.24,-0.01,-0.01,0
0.699,0,-0.01,0.24,0,-0.01,0
0.704,0,-0.01,0.24,0,-0.01,0
0.704,0,-0.01,0.24,0,0,0
0.718,0,-0.01,0.24,0,0,0
0.719,0,-0.01,0.24,0,0,0
0.719,0,-0.01,0.24,0,0,0
0.719,0,-0.01,0.24,0,0,0
0.719,0,-0.01,0.24,0,0,0
0.719,0,-0.01,0.24,0,0,0
0.72,0,-0.01,0.24,0,0,0
0.72,0,-0.01,0.24,0,0,0
0.72,0.04,0.03,0.25,0,0,0
0.72,0.04,0.03,0.25,0,0,0
0.72,0.04,0.03,0.25,0,0,0
0.721,0.04,0.03,0.25,0,0,0
0.722,0.04,0.03,0.25,0,0.01,0
0.725,0.04,0.03,0.25,0,0.01,0
0.725,0.03,0.04,0.24,0,0.01,0
0.726,0.03,0.04,0.24,0,0.01,0
0.728,0.03,0.04,0.24,0,0.01,0
0.73,0.03,0.04,0.24,0,0,0
0.732,0.03,0.04,0.24,0,0.01,0
0.734,0.03,0.04,0.24,0,0.01,0
0.735,0.04,0.05,0.26,0,0.01,0
0.736,0.04,0.05,0.26,0.01,0.01,0
0.738,0.04,0.05,0.26,0,0.01,0
0.74,0.04,0.05,0.26,0,0,0
0.742,0.04,0.05,0.26,0,0,0
0.758,0.04,0.05,0.26,0,0,0
0.758,0.04,0.05,0.26,0,0,0
0.759,0.04,0.05,0.26,0,0,0
0.759,0.04,0.05,0.26,0,0,0
0.759,0.04,0.05,0.26,0,0,0
0.759,0.04,0.05,0.26,0,0,0
0.76,0.04,0.05,0.26,0,0,0
0.76,0.01,0.01,0.23,0,0,0
0.76,0.01,0.01,0.23,0,0,0
0.76,0.01,0.01,0.23,0,0,0
0.76,0.01,0.01,0.23,0,0,0
0.762,0.01,0.01,0.23,0,0,0
0.763,0.01,0.01,0.23,0,0,0
0.767,0.01,0.01,0.23,0,0,0
0.767,0.01,0.01,0.23,0,0,0
0.768,-0.01,-0.03,0.23,0,0,0
0.768,-0.01,-0.03,0.23,0,0,0
0.77,-0.01,-0.03,0.23,0,0,0
0.772,-0.01,-0.03,0.23,0,-0.01,0
0.775,-0.01,-0.03,0.23,-0.01,0,0
0.775,0.01,-0.04,0.21,-0.01,0,0
0.776,0.01,-0.04,0.21,0,-0.01,0
0.778,0.01,-0.04,0.21,0,0,0
0.782,0.01,-0.04,0.21,0,-0.01,0
0.783,0.01,-0.04,0.21,0,0,0
0.798,0.01,-0.04,0.21,0,-0.01,0
0.798,0.01,-0.04,0.21,0,0,0
0.798,0.01,-0.04,0.21,0,0,0
0.798,0.01,-0.04,0.21,0,0,0
0.799,0.01,-0.04,0.21,0,0,0
0.799,0.01,-0.04,0.21,0,0,0
0.799,0.01,-0.04,0.21,0,0,0
0.799,0.01,-0.04,0.21,0,0,0
0.8,0.01,-0.04,0.21,0,0,0
0.8,0.01,-0.04,0.21,0,0,0
0.801,0.01,-0.04,0.21,0,0,0
0.803,0.01,-0.04,0.21,0,0,0
0.806,0.01,-0.04,0.21,0,0,0
0.806,0,0.01,0.25,0,0,0
0.806,0,0.01,0.25,0,0,0
0.808,0,0.01,0.25,0,0,0
0.81,0,0.01,0.25,0.01,0,0
0.814,0,0.01,0.25,0,0.01,0
0.815,0,0.01,0.25,0,0,0
0.82,0.04,0.04,0.21,0,0,0
0.821,0.04,0.04,0.21,0,0,0
0.821,0.04,0.04,0.21,0,0.01,0
0.821,0.04,0.04,0.21,0,0,0
0.822,0.04,0.04,0.21,0,0,0
0.837,0.04,0.04,0.21,0.01,0,0
0.838,0.04,0.04,0.21,0,0.01,0
0.838,0.04,0.04,0.21,0,0.01,0
0.839,0.04,0.04,0.21,0,0.01,0
0.842,0.04,0.04,0.21,0,0,0
0.842,0.04,0.04,0.21,0,0,0
0.842,0.04,0.04,0.21,0,0,0
0.843,0.06,0.07,0.22,0,0,0
0.843,0.06,0.07,0.22,0,0,0
0.843,0.06,0.07,0.22,0,0,0
0.843,0.06,0.07,0.22,0,0,0
0.844,0.06,0.07,0.22,0,0,0
0.845,0.06,0.07,0.22,0,0,0
0.846,0.03,0.04,0.21,0,0,0
0.847,0.03,0.04,0.21,0,0,0
0.848,0.03,0.04,0.21,0,0,0
0.849,0.03,0.04,0.21,0,0,0
0.852,0.03,0.04,0.21,0,0,0
0.855,0.03,0.04,0.21,0,0,0
0.856,0,-0.01,0.23,0,0,0
0.856,0,-0.01,0.23,-0.01,0,0
0.858,0,-0.01,0.23,0,0,0
0.863,0,-0.01,0.23,0,0,0
0.864,0,-0.01,0.23,0,-0.01,0
0.879,0,-0.01,0.23,0,-0.01,0
0.879,0,-0.01,0.23,0,0,0
0.88,0,-0.01,0.23,0,-0.01,0
0.88,0,-0.01,0.23,0,0,0
0.88,0,-0.01,0.23,0,0,0
0.88,0,-0.01,0.23,0,0,0
0.881,0,-0.01,0.23,0,0,0
0.881,0,-0.01,0.23,0,0,0
0.881,0,-0.07,0.22,0,0,0
0.881,0,-0.07,0.22,0,0,0
0.882,0,-0.07,0.22,0,0,0
0.882,0,-0.07,0.22,0,0,0
0.882,0,-0.07,0.22,0,0,0
0.885,0,-0.07,0.22,0.01,0,0
0.885,-0.01,-0.05,0.25,0.01,0,0
0.886,-0.01,-0.05,0.25,0,0,0
0.888,-0.01,-0.05,0.25,0,0,0
0.89,-0.01,-0.05,0.25,0,0,0
0.892,-0.01,-0.05,0.25,0.01,0,0
0.908,-0.01,-0.05,0.25,0.01,0,0
0.909,-0.02,-0.01,0.23,0.01,0,0
0.91,-0.02,-0.01,0.23,0,0,0
0.91,-0.02,-0.01,0.23,0,0,0
0.91,-0.02,-0.01,0.23,0.01,0.01,0
0.91,-0.02,-0.01,0.23,0.01,0.01,0
0.918,-0.02,-0.01,0.23,0.01,0.01,0
0.919,-0.02,-0.01,0.23,0.01,0.01,0
0.919,-0.02,-0.01,0.23,0.01,0.01,0
0.919,-0.02,-0.01,0.23,0.01,0.01,0
0.919,-0.02,-0.01,0.23,0.01,0.01,0
0.919,-0.02,-0.01,0.23,0,0.01,0
0.919,-0.02,-0.01,0.23,0.01,0.01,0
0.919,0,0.06,0.22,0.01,0.01,0
0.919,0,0.06,0.22,0.01,0.01,0
0.92,0,0.06,0.22,0,0.01,0
0.92,0,0.06,0.22,0,0.01,0
0.921,0,0.06,0.22,0,0,0
0.925,0,0.06,0.22,0,0,0
0.925,0.03,0.09,0.23,0,0,0
0.926,0.03,0.09,0.23,0,0,0
0.929,0.03,0.09,0.23,0,0,0
0.93,0.03,0.09,0.23,0,0,0
0.932,0.03,0.09,0.23,0,0,0
0.938,0.03,0.09,0.23,0,0,0
0.938,0.03,0.09,0.23,0,0,0
0.939,0.03,0.09,0.23,0,0,0
0.939,0.06,0.08,0.23,0,0,0
0.94,0.06,0.08,0.23,-0.01,0,0
0.942,0.06,0.08,0.23,0,-0.01,0
0.957,0.06,0.08,0.23,0,-0.01,0
0.957,0.06,0.08,0.23,-0.01,-0.01,0
0.957,0.06,0.08,0.23,-0.01,-0.01,0
0.958,0.06,0.08,0.23,-0.01,-0.01,0
0.958,0.06,0.08,0.23,-0.01,-0.01,0
0.958,0.06,0.08,0.23,-0.01,-0.01,0
0.958,0.06,0.08,0.23,-0.01,-0.01,0
0.958,0.04,-0.07,0.24,-0.01,-0.01,0
0.959,0.04,-0.07,0.24,-0.01,-0.01,0
0.959,0.04,-0.07,0.24,-0.01,-0.01,0
0.961,0.04,-0.07,0.24,-0.01,-0.01,0
0.964,0.04,-0.07,0.24,-0.01,-0.01,0
0.965,0.04,-0.07,0.24,0,-0.01,0
0.965,0.03,-0.08,0.21,0,-0.01,0
0.965,0.03,-0.08,0.21,0,-0.01,0
0.968,0.03,-0.08,0.21,0,-0.01,0
0.969,0.03,-0.08,0.21,0,-0.01,0
0.972,0.03,-0.08,0.21,0,0,0
0.975,0.03,-0.08,0.21,0,0,0
0.975,0.02,-0.04,0.19,0,0,0
0.976,0.02,-0.04,0.19,0,0,0
0.978,0.02,-0.04,0.19,0,0,0
0.98,0.02,-0.04,0.19,0,0,0
0.982,0.02,-0.04,0.19,0,0,0
0.998,0.02,-0.04,0.19,0,0,0
0.998,0.02,-0.04,0.19,0.01,0.01,0
0.998,0.02,-0.04,0.19,0.01,0.01,0
0.998,0.02,-0.04,0.19,0.01,0.01,0
0.999,0.02,-0.04,0.19,0.01,0.01,0
0.999,0.02,-0.04,0.19,0.01,0.01,0
0.999,0.02,-0.04,0.19,0.01,0.01,0
1.003,0,0.02,0.27,0.01,0.01,0
1.003,0,0.02,0.27,0.01,0.01,0
1.004,0,0.02,0.27,0.01,0.01,0
1.004,0,0.02,0.27,0.01,0.01,0
1.004,0,0.02,0.27,0.01,0.01,0
1.006,0,0.02,0.27,0.01,0.01,0
1.006,0,0.02,0.27,0.01,0.01,0
1.006,0.01,0.06,0.23,0.01,0.01,0
1.008,0.01,0.06,0.23,0.01,0.01,0
1.01,0.01,0.06,0.23,0.01,0.01,0
1.014,0.01,0.06,0.23,0.01,0.01,0
1.017,0.01,0.06,0.23,0.01,0.01,0
1.017,0.01,0.06,0.23,0,0.01,0
1.017,0,0.11,0.22,0,0.01,0
1.018,0,0.11,0.22,0,0.01,0
1.02,0,0.11,0.22,0,0.01,0
1.025,0,0.11,0.22,0,0,0
1.037,0,0.11,0.22,0,-0.05,-0.01
1.038,0,0.11,0.22,-0.34,-0.62,-0.11
1.038,0,0.11,0.22,-0.34,-0.62,-0.11
1.038,0,0.11,0.22,-0.34,-0.62,-0.11
1.039,0,0.11,0.22,-0.36,-0.65,-0.2
1.039,0,0.11,0.22,-0.32,-0.25,-0.3
1.039,0,0.11,0.22,-0.32,-0.25,-0.3
1.039,-0.04,-0.59,4.19,-0.32,-0.25,-0.3
1.04,-0.1,-0.56,4.2,-0.32,-0.25,-0.3
1.04,-0.1,-0.56,4.2,0.01,-0.11,-0.5
1.04,-0.1,-0.56,4.2,0.08,-0.21,-0.59
1.042,-0.1,-0.56,4.2,-0.03,0.28,-0.69
1.049,-0.1,-0.56,4.2,-0.03,0.06,-0.8
1.049,-0.1,-0.56,4.2,-0.04,0.01,-0.86
1.049,-1.57,0.06,0.94,-0.04,0.01,-0.86
1.049,-1.57,0.06,0.94,-0.02,-0.09,-0.9
1.05,-1.57,0.06,0.94,-0.08,-0.14,-0.96
1.052,-1.57,0.06,0.94,-0.1,-0.06,-1.03
1.055,-1.57,0.06,0.94,-0.09,0.03,-1.11
1.055,-0.79,-1.7,0.01,-0.09,0.03,-1.11
1.056,-0.79,-1.7,0.01,-0.1,0.06,-1.14
1.057,-0.79,-1.7,0.01,-0.15,0.14,-1.18
1.059,-0.79,-1.7,0.01,-0.22,0.27,-1.18
1.062,-0.79,-1.7,0.01,-0.26,0.36,-1.17
1.078,-0.79,-1.7,0.01,-0.36,0.55,-1.1
1.079,-0.79,-1.7,0.01,-0.54,0.01,-0.72
1.079,-0.79,-1.7,0.01,-0.54,0.01,-0.72
1.079,-0.79,-1.7,0.01,-0.51,-0.13,-0.65
1.079,-0.79,-1.7,0.01,-0.51,-0.13,-0.65
1.08,-0.79,-1.7,0.01,-0.41,-0.18,-0.61
1.08,-0.79,-1.7,0.01,-0.41,-0.12,-0.58
1.081,0.44,1.37,5.58,-0.41,-0.12,-0.58
1.082,0.48,1.44,5.58,-0.41,-0.12,-0.58
1.082,0.46,1.49,5.58,-0.41,-0.12,-0.58
1.082,0.46,1.49,5.58,-0.47,-0.01,-0.54
1.082,0.46,1.49,5.58,-0.39,0.01,-0.46
1.083,0.46,1.49,5.58,-0.27,0.01,-0.37
1.085,0.46,1.49,5.58,-0.26,0.06,-0.33
1.086,-1.39,0.69,-1.86,-0.26,0.06,-0.33
1.086,-1.39,0.69,-1.86,-0.23,0.15,-0.26
1.088,-1.39,0.69,-1.86,-0.18,0.15,-0.19
1.09,-1.39,0.69,-1.86,-0.19,0.21,-0.11
1.092,-1.39,0.69,-1.86,-0.2,0.22,-0.07
1.095,-1.39,0.69,-1.86,-0.2,0.2,0.02
1.096,-2.55,0.26,0.66,-0.2,0.2,0.02
1.097,-2.55,0.26,0.66,-0.23,0.2,0.11
1.101,-2.55,0.26,0.66,-0.28,0.2,0.21
1.101,-2.55,0.26,0.66,-0.28,0.19,0.26
1.102,-2.55,0.26,0.66,-0.31,0.2,0.37
1.12,-2.55,0.26,0.66,-0.34,0.2,0.49
1.12,-2.55,0.26,0.66,-0.36,0.17,0.88
1.12,-2.55,0.26,0.66,-0.35,0.15,0.91
1.121,-2.55,0.26,0.66,-0.35,0.12,0.95
1.121,-2.55,0.26,0.66,-0.35,0.12,0.95
1.121,-2.55,0.26,0.66,-0.35,0.12,0.95
1.121,-2.55,0.26,0.66,-0.35,0.12,0.95
1.121,-2.55,0.26,0.66,-0.36,0.03,1.01
1.122,-4.07,-0.04,0.26,-0.36,0.03,1.01
1.122,-4.03,0.03,0.26,-0.36,0.03,1.01
1.122,-4.01,0.06,0.26,-0.36,0.03,1.01
1.122,-4.01,0.06,0.26,-0.38,-0.09,1.05
1.124,-4.01,0.06,0.26,-0.39,-0.15,1.07
1.126,-4.01,0.06,0.26,-0.42,-0.26,1.08
1.126,-1.8,0.74,0.09,-0.42,-0.26,1.08
1.127,-1.8,0.74,0.09,-0.45,-0.35,1.09
1.128,-1.8,0.74,0.09,-0.47,-0.38,1.08
1.13,-1.8,0.74,0.09,-0.49,-0.42,1.06
1.132,-1.8,0.74,0.09,-0.51,-0.44,1.01
1.135,-1.8,0.74,0.09,-0.52,-0.43,0.95
1.135,0.93,1.01,0.47,-0.52,-0.43,0.95
1.136,0.93,1.01,0.47,-0.52,-0.42,0.92
1.138,0.93,1.01,0.47,-0.53,-0.38,0.85
1.14,0.93,1.01,0.47,-0.52,-0.34,0.76
1.142,0.93,1.01,0.47,-0.51,-0.28,0.66
1.157,0.93,1.01,0.47,-0.49,-0.25,0.61
1.158,0.93,1.01,0.47,-0.42,0.03,0.22
1.158,0.93,1.01,0.47,-0.42,0.07,0.17
1.158,0.93,1.01,0.47,-0.42,0.07,0.17
1.158,0.93,1.01,0.47,-0.42,0.07,0.17
1.159,0.93,1.01,0.47,-0.41,0.11,0.12
1.159,0.93,1.01,0.47,-0.42,0.13,0.06
1.159,3.46,-0.36,0.23,-0.42,0.13,0.06
1.159,3.45,-0.27,0.24,-0.42,0.13,0.06
1.165,3.45,-0.27,0.24,-0.42,0.16,0.01
1.165,3.45,-0.27,0.24,-0.45,0.24,-0.1
1.166,3.45,-0.27,0.24,-0.48,0.34,-0.19
1.166,3.45,-0.27,0.24,-0.53,0.43,-0.28
1.167,3.34,-1.61,0.89,-0.53,0.43,-0.28
1.168,3.34,-1.61,0.89,-0.56,0.47,-0.32
1.169,3.34,-1.61,0.89,-0.62,0.52,-0.38
1.17,3.34,-1.61,0.89,-0.7,0.52,-0.44
1.172,3.34,-1.61,0.89,-0.73,0.52,-0.47
1.175,3.34,-1.61,0.89,-0.84,0.48,-0.52
1.176,2.56,-1.17,0.68,-0.84,0.48,-0.52
1.177,2.56,-1.17,0.68,-0.96,0.42,-0.54
1.179,2.56,-1.17,0.68,-1.06,0.4,-0.57
1.181,2.56,-1.17,0.68,-1.11,0.39,-0.59
1.183,2.56,-1.17,0.68,-1.2,0.39,-0.61
1.201,2.56,-1.17,0.68,-1.28,0.41,-0.62
1.202,2.56,-1.17,0.68,-1.57,0.37,-0.59
1.202,2.56,-1.17,0.68,-1.57,0.37,-0.59
1.202,2.56,-1.17,0.68,-1.61,0.32,-0.57
1.203,2.56,-1.17,0.68,-1.66,0.27,-0.54
1.203,2.56,-1.17,0.68,-1.66,0.27,-0.54
1.203,2.56,-1.17,0.68,-1.66,0.27,-0.54
1.203,2.56,-1.17,0.68,-1.75,0.14,-0.47
1.204,2.56,-1.17,0.68,-1.86,0,-0.36
1.204,-0.93,-0.78,0.48,-1.86,0,-0.36
1.204,-0.87,-0.5,0.51,-1.86,0,-0.36
1.205,-0.84,-0.35,0.52,-1.86,0,-0.36
1.205,-0.84,-0.35,0.52,-1.91,-0.1,-0.29
1.206,-0.84,-0.35,0.52,-2.03,-0.27,-0.14
1.206,-0.84,-0.35,0.52,-2.15,-0.45,0.02
1.206,-3.59,-0.06,0.14,-2.15,-0.45,0.02
1.208,-3.59,-0.06,0.14,-2.27,-0.69,0.23
1.212,-3.59,-0.06,0.14,-2.33,-0.81,0.35
1.213,-3.59,-0.06,0.14,-2.47,-1.07,0.59
1.216,-3.59,-0.06,0.14,-2.6,-1.38,0.85
1.216,-3.59,-0.06,0.14,-2.67,-1.55,0.98
1.216,-5.39,0.69,0.77,-2.67,-1.55,0.98
1.218,-5.39,0.69,0.77,-2.76,-2.1,1.27
1.22,-5.39,0.69,0.77,-2.84,-2.72,1.58
1.222,-5.39,0.69,0.77,-2.34,-2.43,1.82
1.237,-5.39,0.69,0.77,-2.22,-2.5,1.74
1.238,-5.39,0.69,0.77,-1.87,-5.73,2.44
1.238,-5.39,0.69,0.77,-1.94,-6.14,2.55
1.238,-5.39,0.69,0.77,-1.92,-6.52,2.65
1.238,-5.39,0.69,0.77,-1.92,-6.52,2.65
1.238,-5.39,0.69,0.77,-1.92,-6.52,2.65
1.239,-5.39,0.69,0.77,-1.92,-6.52,2.65
1.239,4.95,1.12,6.93,-1.92,-6.52,2.65
1.239,4.24,1.54,7.06,-1.92,-6.52,2.65
1.239,3.71,1.75,7.18,-1.92,-6.52,2.65
1.239,3.71,1.75,7.18,-1.96,-6.87,2.74
1.24,3.71,1.75,7.18,-1.85,-7.2,2.79
1.242,3.71,1.75,7.18,-1.63,-7.08,2.6
1.245,3.71,1.75,7.18,-1.23,-6.58,2.26
1.246,18,-0.28,4.84,-1.23,-6.58,2.26
1.246,18,-0.28,4.84,-1,-6.15,2.07
1.249,18,-0.28,4.84,-0.34,-4.9,1.45
1.249,18,-0.28,4.84,0.55,-3.09,0.27
1.252,18,-0.28,4.84,1.55,-1.01,-1.27
1.255,18,-0.28,4.84,2.09,0.05,-2.02
1.256,19.18,-2.89,16.6,2.09,0.05,-2.02
1.256,19.18,-2.89,16.6,3.02,1.92,-3.22
1.258,19.18,-2.89,16.6,3.82,3.33,-3.98
1.26,19.18,-2.89,16.6,4.4,4.13,-4.22
1.262,19.18,-2.89,16.6,4.65,4.33,-4.51
1.278,19.18,-2.89,16.6,4.94,4.46,-4.61
1.279,19.18,-2.89,16.6,4.84,3.53,-4.38
1.279,19.18,-2.89,16.6,4.84,3.53,-4.38
1.279,19.18,-2.89,16.6,4.84,3.53,-4.38
1.28,19.18,-2.89,16.6,4.84,3.53,-4.38
1.28,19.18,-2.89,16.6,4.79,3.43,-4.32
1.28,19.18,-2.89,16.6,4.8,3.32,-4.27
1.281,19.18,-2.89,16.6,4.69,3.12,-4.22
1.281,-0.06,-6.26,1.25,4.69,3.12,-4.22
1.282,0.55,-7.35,0.95,4.69,3.12,-4.22
1.282,0.55,-7.35,0.95,4.65,3.02,-4.23
1.284,0.55,-7.35,0.95,4.57,3.07,-4.26
1.286,0.55,-7.35,0.95,4.51,3.15,-4.27
1.286,0.55,-7.35,0.95,4.37,3.4,-4.29
1.286,2.13,0.58,-5.13,4.37,3.4,-4.29
1.288,2.13,0.58,-5.13,4.19,3.73,-4.28
1.29,2.13,0.58,-5.13,4.13,3.91,-4.26
1.292,2.13,0.58,-5.13,3.94,4.32,-4.18
1.295,2.13,0.58,-5.13,3.75,4.76,-4.05
1.296,-5.11,0.68,-8.35,3.75,4.76,-4.05
1.296,-5.11,0.68,-8.35,3.51,5.18,-3.88
1.298,-5.11,0.68,-8.35,3.38,5.37,-3.79
1.301,-5.11,0.68,-8.35,3.09,5.67,-3.61
1.302,-5.11,0.68,-8.35,2.76,5.87,-3.43
1.319,-5.11,0.68,-8.35,2.46,5.98,-3.27
1.319,-5.11,0.68,-8.35,1.46,5.97,-2.89
1.319,-5.11,0.68,-8.35,1.46,5.97,-2.89
1.32,-5.11,0.68,-8.35,1.46,5.97,-2.89
1.32,-5.11,0.68,-8.35,1.46,5.97,-2.89
1.32,-5.11,0.68,-8.35,1.39,5.93,-2.85
1.32,-5.11,0.68,-8.35,1.32,5.89,-2.81
1.32,-4.7,-1.84,-7.67,1.32,5.89,-2.81
1.32,-3.53,-2.24,-7.7,1.32,5.89,-2.81
1.321,-2.94,-2.36,-7.66,1.32,5.89,-2.81
1.321,-2.94,-2.36,-7.66,1.22,5.83,-2.73
1.324,-2.94,-2.36,-7.66,1.18,5.8,-2.68
1.325,-2.94,-2.36,-7.66,1.12,5.75,-2.6
1.325,-2.94,-2.36,-7.66,1.08,5.71,-2.53
1.326,-2.65,-1.92,-4.02,1.08,5.71,-2.53
1.326,-2.65,-1.92,-4.02,1.06,5.66,-2.47
1.329,-2.65,-1.92,-4.02,1.06,5.62,-2.45
1.33,-2.65,-1.92,-4.02,1.06,5.53,-2.43
1.332,-2.65,-1.92,-4.02,1.07,5.4,-2.43
1.335,-2.65,-1.92,-4.02,1.08,5.33,-2.43
1.335,0.21,-0.63,-1.37,1.08,5.33,-2.43
1.336,0.21,-0.63,-1.37,1.09,5.15,-2.46
1.338,0.21,-0.63,-1.37,1.11,4.95,-2.5
1.34,0.21,-0.63,-1.37,1.1,4.74,-2.55
1.342,0.21,-0.63,-1.37,1.1,4.64,-2.57
1.358,0.21,-0.63,-1.37,1.1,4.46,-2.62
1.359,0.21,-0.63,-1.37,1.24,4.58,-2.6
1.359,0.21,-0.63,-1.37,1.24,4.58,-2.58
1.359,0.21,-0.63,-1.37,1.27,4.67,-2.55
1.359,0.21,-0.63,-1.37,1.27,4.67,-2.55
1.36,0.21,-0.63,-1.37,1.3,4.76,-2.52
1.36,0.21,-0.63,-1.37,1.3,4.76,-2.52
1.36,0.21,-0.63,-1.37,1.33,4.84,-2.48
1.36,0.75,-0.61,0.84,1.33,4.84,-2.48
1.36,1.63,-0.7,1.07,1.33,4.84,-2.48
1.361,2.07,-0.73,1.23,1.33,4.84,-2.48
1.361,2.07,-0.73,1.23,1.42,4.96,-2.4
1.363,2.07,-0.73,1.23,1.51,5.03,-2.29
1.368,2.07,-0.73,1.23,1.55,5.04,-2.23
1.368,2.07,-0.73,1.23,1.63,5.04,-2.09
1.369,2.07,-0.73,1.23,1.75,5,-1.89
1.369,-2.7,0.56,2.42,1.75,5,-1.89
1.37,-2.7,0.56,2.42,1.87,4.97,-1.7
1.372,-2.7,0.56,2.42,1.94,4.94,-1.62
1.376,-2.7,0.56,2.42,2.07,4.86,-1.49
1.376,-4.22,0.12,4.45,2.07,4.86,-1.49
1.377,-4.22,0.12,4.45,2.21,4.78,-1.38
1.38,-4.22,0.12,4.45,2.31,4.72,-1.29
1.384,-4.22,0.12,4.45,2.55,4.61,-1.12
1.385,-4.22,0.12,4.45,2.66,4.61,-1.01
1.402,-4.22,0.12,4.45,2.75,4.61,-0.94
1.402,-4.22,0.12,4.45,3.09,4.71,-0.77
1.403,-4.22,0.12,4.45,3.12,4.72,-0.75
1.403,-4.22,0.12,4.45,3.14,4.72,-0.74
1.403,-4.22,0.12,4.45,3.14,4.72,-0.74
1.403,-4.22,0.12,4.45,3.14,4.72,-0.74
1.404,-4.22,0.12,4.45,3.14,4.72,-0.74
1.404,-4.22,0.12,4.45,3.16,4.71,-0.72
1.404,-2.65,-3.48,2.15,3.16,4.71,-0.72
1.404,-1.83,-3.9,2.64,3.16,4.71,-0.72
1.405,-1.83,-3.9,2.64,3.16,4.68,-0.71
1.405,-1.83,-3.9,2.64,3.14,4.62,-0.72
1.41,-1.83,-3.9,2.64,3.12,4.55,-0.72
1.411,-1.83,-3.9,2.64,3.07,4.5,-0.74
1.411,-1.83,-3.9,2.64,3.04,4.49,-0.76
1.411,-1.83,-3.9,2.64,2.97,4.45,-0.81
1.412,0.36,-3.29,0.99,2.97,4.45,-0.81
1.412,0.36,-3.29,0.99,2.89,4.38,-0.89
1.416,0.36,-3.29,0.99,2.81,4.29,-0.99
1.417,2.5,-2.68,-1.28,2.81,4.29,-0.99
1.418,2.5,-2.68,-1.28,2.76,4.25,-1.05
1.418,2.5,-2.68,-1.28,2.67,4.19,-1.15
1.42,2.5,-2.68,-1.28,2.58,4.13,-1.2
1.422,2.5,-2.68,-1.28,2.53,4.11,-1.23
1.437,2.5,-2.68,-1.28,2.42,4.06,-1.3
1.437,2.5,-2.68,-1.28,1.91,3.88,-1.59
1.438,2.5,-2.68,-1.28,1.91,3.88,-1.59
1.438,2.5,-2.68,-1.28,1.91,3.88,-1.59
1.438,2.5,-2.68,-1.28,1.83,3.81,-1.63
1.438,2.5,-2.68,-1.28,1.83,3.81,-1.63
1.439,2.5,-2.68,-1.28,1.76,3.74,-1.66
1.439,4.41,-0.87,-3.25,1.76,3.74,-1.66
1.439,5.02,-0.98,-2.67,1.76,3.74,-1.66
1.44,5.02,-0.98,-2.67,1.61,3.6,-1.72
1.44,5.02,-0.98,-2.67,1.47,3.46,-1.79
1.443,5.02,-0.98,-2.67,1.33,3.32,-1.86
1.448,5.02,-0.98,-2.67,1.27,3.25,-1.89
1.448,5.02,-0.98,-2.67,1.13,3.11,-1.94
1.449,5.02,-0.98,-2.67,1.01,3,-1.98
1.449,4.42,0.22,-2.16,1.01,3,-1.98
1.45,4.42,0.22,-2.16,0.89,2.91,-2.03
1.452,4.42,0.22,-2.16,0.83,2.86,-2.04
1.454,4.42,0.22,-2.16,0.72,2.77,-2.08
1.455,4.11,1.37,-2.25,0.72,2.77,-2.08
1.456,4.11,1.37,-2.25,0.6,2.68,-2.1
1.458,4.11,1.37,-2.25,0.48,2.62,-2.11
1.46,4.11,1.37,-2.25,0.42,2.59,-2.11
1.462,4.11,1.37,-2.25,0.29,2.53,-2.1
1.481,4.11,1.37,-2.25,0.17,2.47,-2.07
1.481,4.11,1.37,-2.25,-0.23,2.14,-1.85
1.482,4.11,1.37,-2.25,-0.27,2.09,-1.81
1.482,4.11,1.37,-2.25,-0.31,2.04,-1.76
1.482,4.11,1.37,-2.25,-0.31,2.04,-1.76
1.482,4.11,1.37,-2.25,-0.31,2.04,-1.76
1.483,4.11,1.37,-2.25,-0.31,2.04,-1.76
1.483,-0.14,2.23,-3.04,-0.31,2.04,-1.76
1.483,0.04,2.38,-2.85,-0.31,2.04,-1.76
1.483,0.19,2.54,-2.68,-0.31,2.04,-1.76
1.484,0.19,2.54,-2.68,-0.37,1.93,-1.67
1.484,0.19,2.54,-2.68,-0.42,1.83,-1.57
1.484,0.19,2.54,-2.68,-0.44,1.77,-1.52
1.488,0.19,2.54,-2.68,-0.46,1.63,-1.41
1.488,0.19,2.54,-2.68,-0.46,1.46,-1.29
1.488,-0.21,2.57,-2.37,-0.46,1.46,-1.29
1.488,-0.21,2.57,-2.37,-0.46,1.37,-1.24
1.49,-0.21,2.57,-2.37,-0.45,1.18,-1.12
1.497,-0.21,2.57,-2.37,-0.42,0.98,-1.02
1.497,-0.21,2.57,-2.37,-0.39,0.79,-0.91
1.497,-0.21,2.57,-2.37,-0.37,0.69,-0.86
1.498,-0.02,2.12,-1.42,-0.37,0.69,-0.86
1.498,-0.02,2.12,-1.42,-0.32,0.5,-0.76
1.5,-0.02,2.12,-1.42,-0.28,0.31,-0.66
1.502,-0.02,2.12,-1.42,-0.23,0.11,-0.56
1.517,-0.02,2.12,-1.42,-0.21,0.01,-0.51
1.517,-0.02,2.12,-1.42,-0.02,-0.83,-0.06
1.517,-0.02,2.12,-1.42,-0.02,-0.83,-0.06
1.518,-0.02,2.12,-1.42,-0.01,-0.93,-0.01
1.518,-0.02,2.12,-1.42,-0.01,-0.93,-0.01
1.518,-0.02,2.12,-1.42,0,-1.03,0.03
1.518,-0.02,2.12,-1.42,0.01,-1.12,0.07
1.518,0.05,1.15,-1.03,0.01,-1.12,0.07
1.519,0.01,1.2,-1.11,0.01,-1.12,0.07
1.519,-0.05,1.2,-1.18,0.01,-1.12,0.07
1.519,-0.05,1.2,-1.18,0.02,-1.21,0.1
1.521,-0.05,1.2,-1.18,0.02,-1.38,0.15
1.522,-0.05,1.2,-1.18,0.02,-1.56,0.21
1.527,-0.05,1.2,-1.18,0.03,-1.74,0.27
1.527,-0.05,1.2,-1.18,0.05,-1.94,0.35
1.527,0.47,0.89,-1.39,0.05,-1.94,0.35
1.528,0.47,0.89,-1.39,0.06,-2.05,0.4
1.529,0.47,0.89,-1.39,0.11,-2.28,0.5
1.531,0.47,0.89,-1.39,0.13,-2.39,0.54
1.535,0.47,0.89,-1.39,0.16,-2.62,0.63
1.535,0.59,0.81,-1.07,0.16,-2.62,0.63
1.535,0.59,0.81,-1.07,0.19,-2.83,0.72
1.537,0.59,0.81,-1.07,0.19,-3.03,0.77
1.54,0.59,0.81,-1.07,0.17,-3.11,0.79
1.541,0.59,0.81,-1.07,0.12,-3.26,0.8
1.558,0.59,0.81,-1.07,0.06,-3.42,0.81
1.558,0.59,0.81,-1.07,0.15,-4.63,1.08
1.558,0.59,0.81,-1.07,0.15,-4.63,1.08
1.558,0.59,0.81,-1.07,0.15,-4.63,1.08
1.559,0.59,0.81,-1.07,0.2,-4.85,1.14
1.559,0.59,0.81,-1.07,0.26,-5.09,1.21
1.559,0.59,0.81,-1.07,0.26,-5.09,1.21
1.559,-1.05,1.77,1.96,0.26,-5.09,1.21
1.559,-1.58,1.62,1.37,0.26,-5.09,1.21
1.56,-1.58,1.62,1.37,0.41,-5.61,1.39
1.56,-1.58,1.62,1.37,0.57,-6.15,1.56
1.562,-1.58,1.62,1.37,0.66,-6.43,1.64
1.565,-1.58,1.62,1.37,0.83,-6.96,1.8
1.565,-2.1,-0.08,1.55,0.83,-6.96,1.8
1.565,-2.1,-0.08,1.55,1,-7.49,1.94
1.568,-2.1,-0.08,1.55,1.16,-7.99,2.07
1.57,-2.1,-0.08,1.55,1.24,-8.23,2.13
1.572,-2.1,-0.08,1.55,1.4,-8.69,2.24
1.575,-2.1,-0.08,1.55,1.55,-9.15,2.33
1.575,-1.31,-1.6,-0.26,1.55,-9.15,2.33
1.576,-1.31,-1.6,-0.26,1.62,-9.34,2.36
1.577,-1.31,-1.6,-0.26,1.7,-9.46,2.37
1.58,-1.31,-1.6,-0.26,1.64,-8.98,2.29
1.582,-1.31,-1.6,-0.26,1.49,-8.12,2.15
1.599,-1.31,-1.6,-0.26,1.47,-7.91,2.07
1.599,-1.31,-1.6,-0.26,1.65,-8.3,1.42
1.6,-1.31,-1.6,-0.26,1.66,-8.3,1.35
1.6,-1.31,-1.6,-0.26,1.67,-8.28,1.28
1.6,-1.31,-1.6,-0.26,1.67,-8.28,1.28
1.6,-1.31,-1.6,-0.26,1.67,-8.28,1.28
1.601,-1.31,-1.6,-0.26,1.67,-8.28,1.28
1.601,-1.31,-1.6,-0.26,1.67,-8.23,1.2
1.602,3.38,-2.77,-0.82,1.67,-8.23,1.2
1.602,2.7,-3,-1.2,1.67,-8.23,1.2
1.602,1.97,-3.2,-1.53,1.67,-8.23,1.2
1.602,1.97,-3.2,-1.53,1.66,-8.06,1.04
1.603,1.97,-3.2,-1.53,1.61,-7.72,0.84
1.607,1.97,-3.2,-1.53,1.54,-7.05,0.61
1.607,1.97,-3.2,-1.53,1.51,-6.56,0.48
1.607,2.53,-0.75,-1.86,1.51,-6.56,0.48
1.608,2.53,-0.75,-1.86,1.5,-5.51,0.19
1.61,2.53,-0.75,-1.86,1.53,-4.84,-0.06
1.614,2.53,-0.75,-1.86,1.57,-4.59,-0.28
1.615,2.53,-0.75,-1.86,1.59,-4.53,-0.38
1.615,2.65,-0.17,-0.47,1.59,-4.53,-0.38
1.616,2.65,-0.17,-0.47,1.61,-4.43,-0.57
1.618,2.65,-0.17,-0.47,1.62,-4.27,-0.76
1.62,2.65,-0.17,-0.47,1.62,-4.18,-0.85
1.622,2.65,-0.17,-0.47,1.61,-3.96,-1.04
1.635,2.65,-0.17,-0.47,1.61,-3.71,-1.22
1.636,2.65,-0.17,-0.47,1.66,-2.93,-1.75
1.636,2.65,-0.17,-0.47,1.66,-2.93,-1.75
1.636,2.65,-0.17,-0.47,1.66,-2.93,-1.75
1.636,2.65,-0.17,-0.47,1.66,-2.93,-1.75
1.636,2.65,-0.17,-0.47,1.66,-2.93,-1.75
1.637,1.08,1.91,1.65,1.66,-2.93,-1.75
1.637,0.57,1.7,1.54,1.66,-2.93,-1.75
1.637,0.57,1.7,1.54,1.68,-2.9,-1.83
1.638,0.57,1.7,1.54,1.69,-2.93,-1.88
1.64,0.57,1.7,1.54,1.69,-2.97,-1.92
1.642,0.57,1.7,1.54,1.69,-3,-1.94
1.646,0.57,1.7,1.54,1.68,-3.06,-1.97
1.646,0.57,1.7,1.54,1.66,-3.12,-1.99
1.649,-0.21,0.84,1.27,1.66,-3.12,-1.99
1.649,-0.21,0.84,1.27,1.65,-3.19,-1.99
1.65,-0.21,0.84,1.27,1.64,-3.23,-1.99
1.652,-0.21,0.84,1.27,1.62,-3.32,-1.98
1.655,-0.21,0.84,1.27,1.61,-3.41,-1.95
1.655,-0.85,-0.43,1.6,1.61,-3.41,-1.95
1.656,-0.85,-0.43,1.6,1.61,-3.51,-1.91
1.657,-0.85,-0.43,1.6,1.61,-3.57,-1.88
1.659,-0.85,-0.43,1.6,1.62,-3.7,-1.82
1.663,-0.85,-0.43,1.6,1.65,-3.84,-1.74
1.677,-0.85,-0.43,1.6,1.67,-3.92,-1.69
1.677,-0.85,-0.43,1.6,2.02,-4.99,-1.14
1.677,-0.85,-0.43,1.6,2.02,-4.99,-1.14
1.678,-0.85,-0.43,1.6,2.02,-4.99,-1.14
1.678,-0.85,-0.43,1.6,2.02,-4.99,-1.14
1.678,-0.85,-0.43,1.6,2.07,-5.11,-1.08
1.678,-0.85,-0.43,1.6,2.11,-5.22,-1.02
1.679,-1.69,-2.64,3.32,2.11,-5.22,-1.02
1.679,-2.41,-2.93,3.3,2.11,-5.22,-1.02
1.679,-2.82,-3.1,3.32,2.11,-5.22,-1.02
1.679,-2.82,-3.1,3.32,2.21,-5.44,-0.89
1.68,-2.82,-3.1,3.32,2.25,-5.55,-0.83
1.681,-2.82,-3.1,3.32,2.34,-5.75,-0.7
1.685,-2.82,-3.1,3.32,2.44,-5.93,-0.58
1.685,-2.6,-3.9,3.46,2.44,-5.93,-0.58
1.686,-2.6,-3.9,3.46,2.49,-6.02,-0.52
1.688,-2.6,-3.9,3.46,2.59,-6.17,-0.4
1.69,-2.6,-3.9,3.46,2.69,-6.31,-0.27
1.692,-2.6,-3.9,3.46,2.8,-6.43,-0.16
1.694,-2.6,-3.9,3.46,2.86,-6.49,-0.1
1.696,-1.98,-3.5,4.23,2.86,-6.49,-0.1
1.696,-1.98,-3.5,4.23,2.97,-6.58,0
1.698,-1.98,-3.5,4.23,3.09,-6.65,0.1
1.7,-1.98,-3.5,4.23,3.22,-6.69,0.19
1.702,-1.98,-3.5,4.23,3.29,-6.71,0.23
1.717,-1.98,-3.5,4.23,3.42,-6.72,0.29
1.718,-1.98,-3.5,4.23,3.99,-6.55,0.31
1.718,-1.98,-3.5,4.23,3.99,-6.55,0.31
1.718,-1.98,-3.5,4.23,4.05,-6.51,0.29
1.718,-1.98,-3.5,4.23,4.05,-6.51,0.29
1.718,-1.98,-3.5,4.23,4.1,-6.47,0.25
1.718,-1.98,-3.5,4.23,4.1,-6.47,0.25
1.719,2.47,-0.68,5.02,4.1,-6.47,0.25
1.719,1.87,-0.98,5.2,4.1,-6.47,0.25
1.719,1.29,-1.32,5.46,4.1,-6.47,0.25
1.719,1.29,-1.32,5.46,4.14,-6.41,0.21
1.72,1.29,-1.32,5.46,4.2,-6.25,0.1
1.722,1.29,-1.32,5.46,4.19,-6.03,-0.04
1.726,1.29,-1.32,5.46,4.15,-5.9,-0.13
1.726,1.29,-1.32,5.46,4.01,-5.58,-0.34
1.726,2.94,-0.66,2.88,4.01,-5.58,-0.34
1.728,2.94,-0.66,2.88,3.78,-5.21,-0.58
1.729,2.94,-0.66,2.88,3.63,-5.04,-0.72
1.732,2.94,-0.66,2.88,3.31,-4.69,-1
1.735,2.94,-0.66,2.88,3,-4.37,-1.27
1.735,4.22,-0.32,-1.17,3,-4.37,-1.27
1.736,4.22,-0.32,-1.17,2.71,-4.04,-1.51
1.738,4.22,-0.32,-1.17,2.59,-3.87,-1.61
1.74,4.22,-0.32,-1.17,2.37,-3.54,-1.78
1.742,4.22,-0.32,-1.17,2.19,-3.24,-1.87
1.757,4.22,-0.32,-1.17,2.06,-2.98,-1.9
1.758,4.22,-0.32,-1.17,1.64,-1.91,-1.55
1.758,4.22,-0.32,-1.17,1.64,-1.91,-1.55
1.758,4.22,-0.32,-1.17,1.64,-1.91,-1.55
1.758,4.22,-0.32,-1.17,1.64,-1.91,-1.55
1.758,4.22,-0.32,-1.17,1.58,-1.76,-1.48
1.759,4.22,-0.32,-1.17,1.53,-1.61,-1.41
1.759,-1.21,-3.64,-1.61,1.53,-1.61,-1.41
1.759,-1.37,-4.01,-1.26,1.53,-1.61,-1.41
1.759,-1.37,-4.01,-1.26,1.42,-1.3,-1.28
1.76,-1.37,-4.01,-1.26,1.37,-1.15,-1.21
1.762,-1.37,-4.01,-1.26,1.26,-0.86,-1.08
1.765,-1.37,-4.01,-1.26,1.16,-0.57,-0.97
1.766,-1.37,-4.01,-1.26,1.07,-0.3,-0.86
1.766,-2.77,-2.93,-1.35,1.07,-0.3,-0.86
1.768,-2.77,-2.93,-1.35,1.03,-0.18,-0.81
1.77,-2.77,-2.93,-1.35,0.96,0.03,-0.71
1.772,-2.77,-2.93,-1.35,0.9,0.22,-0.62
1.775,-2.77,-2.93,-1.35,0.88,0.3,-0.57
1.775,-4.18,-1.3,-0.36,0.88,0.3,-0.57
1.776,-4.18,-1.3,-0.36,0.84,0.46,-0.48
1.778,-4.18,-1.3,-0.36,0.81,0.59,-0.4
1.779,-4.18,-1.3,-0.36,0.78,0.71,-0.32
1.782,-4.18,-1.3,-0.36,0.77,0.75,-0.28
1.799,-4.18,-1.3,-0.36,0.75,0.81,-0.2
1.8,-4.18,-1.3,-0.36,0.77,0.78,0.17
1.8,-4.18,-1.3,-0.36,0.77,0.78,0.17
1.8,-4.18,-1.3,-0.36,0.78,0.75,0.21
1.8,-4.18,-1.3,-0.36,0.78,0.75,0.21
1.801,-4.18,-1.3,-0.36,0.8,0.73,0.26
1.801,-4.18,-1.3,-0.36,0.8,0.73,0.26
1.801,-5.63,1.67,1.71,0.8,0.73,0.26
1.801,-5.52,1.56,1.76,0.8,0.73,0.26
1.801,-5.48,1.51,1.79,0.8,0.73,0.26
1.802,-5.48,1.51,1.79,0.83,0.67,0.36
1.802,-5.48,1.51,1.79,0.88,0.63,0.45
1.802,-5.48,1.51,1.79,0.92,0.58,0.53
1.805,-5.48,1.51,1.79,0.94,0.55,0.56
1.806,-3.25,0.33,1.42,0.94,0.55,0.56
1.806,-3.25,0.33,1.42,0.97,0.52,0.6
1.809,-3.25,0.33,1.42,1,0.48,0.61
1.81,-3.25,0.33,1.42,1.02,0.46,0.6
1.814,-3.25,0.33,1.42,1.03,0.46,0.59
1.815,-3.25,0.33,1.42,1.04,0.45,0.56
1.815,0.02,-1.92,0.59,1.04,0.45,0.56
1.816,0.02,-1.92,0.59,1.07,0.46,0.54
1.817,0.02,-1.92,0.59,1.09,0.47,0.53
1.819,0.02,-1.92,0.59,1.12,0.49,0.51
1.821,0.02,-1.92,0.59,1.16,0.53,0.5
1.838,0.02,-1.92,0.59,1.2,0.57,0.5
1.838,0.02,-1.92,0.59,1.36,0.71,0.58
1.838,0.02,-1.92,0.59,1.36,0.71,0.58
1.839,0.02,-1.92,0.59,1.38,0.71,0.58
1.839,0.02,-1.92,0.59,1.38,0.71,0.58
1.839,0.02,-1.92,0.59,1.38,0.71,0.58
1.839,0.02,-1.92,0.59,1.38,0.71,0.58
1.839,0.02,-1.92,0.59,1.39,0.7,0.59
1.84,-1.54,-0.52,0.5,1.39,0.7,0.59
1.84,-1.53,-0.59,0.56,1.39,0.7,0.59
1.84,-1.52,-0.67,0.63,1.39,0.7,0.59
1.84,-1.52,-0.67,0.63,1.39,0.69,0.58
1.842,-1.52,-0.67,0.63,1.39,0.64,0.55
1.846,-1.52,-0.67,0.63,1.39,0.57,0.48
1.846,-1.52,-0.67,0.63,1.4,0.5,0.4
1.846,2,-0.62,0.1,1.4,0.5,0.4
1.848,2,-0.62,0.1,1.4,0.47,0.36
1.85,2,-0.62,0.1,1.4,0.42,0.28
1.852,2,-0.62,0.1,1.41,0.38,0.2
1.855,2,-0.62,0.1,1.42,0.33,0.14
1.855,1.58,-0.44,-0.63,1.42,0.33,0.14
1.856,1.58,-0.44,-0.63,1.43,0.31,0.11
1.858,1.58,-0.44,-0.63,1.44,0.3,0.07
1.86,1.58,-0.44,-0.63,1.45,0.3,0.04
1.862,1.58,-0.44,-0.63,1.46,0.31,0.03
1.874,1.58,-0.44,-0.63,1.45,0.36,0.03
1.875,1.58,-0.44,-0.63,1.31,0.5,0.22
1.875,1.58,-0.44,-0.63,1.31,0.5,0.22
1.875,1.58,-0.44,-0.63,1.31,0.5,0.22
1.875,1.58,-0.44,-0.63,1.28,0.5,0.25
1.875,-2.54,-0.07,-3.28,1.28,0.5,0.25
1.876,-2.52,-0.16,-3.19,1.28,0.5,0.25
1.876,-2.52,-0.16,-3.19,1.28,0.5,0.25
1.876,-2.52,-0.16,-3.19,1.21,0.48,0.32
1.878,-2.52,-0.16,-3.19,1.18,0.46,0.35
1.88,-2.52,-0.16,-3.19,1.11,0.43,0.41
1.882,-2.52,-0.16,-3.19,1.04,0.39,0.46
1.885,-2.52,-0.16,-3.19,1.01,0.37,0.49
1.886,-2.47,1.06,-2.98,1.01,0.37,0.49
1.886,-2.47,1.06,-2.98,0.95,0.34,0.52
1.888,-2.47,1.06,-2.98,0.9,0.31,0.54
1.889,-2.47,1.06,-2.98,0.86,0.29,0.55
1.892,-2.47,1.06,-2.98,0.84,0.28,0.55
1.895,-2.47,1.06,-2.98,0.81,0.28,0.53
1.895,-0.68,1.09,-2.17,0.81,0.28,0.53
1.9,-0.68,1.09,-2.17,0.78,0.28,0.5
1.9,-0.68,1.09,-2.17,0.76,0.28,0.46
1.9,-0.68,1.09,-2.17,0.76,0.28,0.44
1.902,-0.68,1.09,-2.17,0.74,0.28,0.4
1.918,-0.68,1.09,-2.17,0.74,0.27,0.37
1.919,-0.68,1.09,-2.17,0.78,0.2,0.29
1.919,-0.68,1.09,-2.17,0.78,0.2,0.29
1.919,-0.68,1.09,-2.17,0.78,0.2,0.29
1.919,-0.68,1.09,-2.17,0.79,0.19,0.29
1.919,-0.68,1.09,-2.17,0.8,0.19,0.29
1.92,-0.68,1.09,-2.17,0.8,0.19,0.29
1.92,-0.68,1.09,-2.17,0.82,0.17,0.29
1.92,-0.71,0.63,-0.49,0.82,0.17,0.29
1.92,-0.73,0.55,-0.39,0.82,0.17,0.29
1.92,-0.73,0.55,-0.39,0.84,0.16,0.3
1.922,-0.73,0.55,-0.39,0.85,0.16,0.31
1.925,-0.73,0.55,-0.39,0.86,0.15,0.31
1.925,-0.89,0.57,-0.31,0.86,0.15,0.31
1.925,-0.89,0.57,-0.31,0.88,0.14,0.32
1.928,-0.89,0.57,-0.31,0.88,0.13,0.32
1.93,-0.89,0.57,-0.31,0.9,0.12,0.32
1.932,-0.89,0.57,-0.31,0.91,0.11,0.32
1.935,-0.89,0.57,-0.31,0.92,0.1,0.31
1.935,-0.46,0.54,-0.47,0.92,0.1,0.31
1.936,-0.46,0.54,-0.47,0.93,0.1,0.31
1.938,-0.46,0.54,-0.47,0.93,0.1,0.3
1.94,-0.46,0.54,-0.47,0.94,0.1,0.29
1.942,-0.46,0.54,-0.47,0.94,0.11,0.28
1.957,-0.46,0.54,-0.47,0.94,0.12,0.27
1.957,-0.46,0.54,-0.47,0.88,0.22,0.23
1.957,-0.46,0.54,-0.47,0.87,0.24,0.22
1.958,-0.46,0.54,-0.47,0.85,0.25,0.21
1.958,-0.46,0.54,-0.47,0.85,0.25,0.21
1.958,-0.46,0.54,-0.47,0.85,0.25,0.21
1.958,-0.46,0.54,-0.47,0.85,0.25,0.21
1.958,-0.23,0.7,-1.45,0.85,0.25,0.21
1.959,-0.24,0.65,-1.39,0.85,0.25,0.21
1.959,-0.24,0.61,-1.33,0.85,0.25,0.21
1.959,-0.24,0.61,-1.33,0.83,0.27,0.21
1.96,-0.24,0.61,-1.33,0.8,0.31,0.19
1.962,-0.24,0.61,-1.33,0.76,0.35,0.17
1.966,-0.24,0.61,-1.33,0.71,0.38,0.15
1.966,-0.24,0.61,-1.33,0.7,0.4,0.14
1.966,0.11,0.92,-1.97,0.7,0.4,0.14
1.968,0.11,0.92,-1.97,0.66,0.43,0.13
1.97,0.11,0.92,-1.97,0.62,0.47,0.12
1.973,0.11,0.92,-1.97,0.6,0.48,0.12
1.975,0.11,0.92,-1.97,0.57,0.52,0.1
1.975,0.23,0.79,-1.85,0.57,0.52,0.1
1.976,0.23,0.79,-1.85,0.53,0.56,0.08
1.978,0.23,0.79,-1.85,0.48,0.6,0.05
1.98,0.23,0.79,-1.85,0.46,0.62,0.04
1.982,0.23,0.79,-1.85,0.41,0.65,0.02
1.997,0.23,0.79,-1.85,0.36,0.68,-0.01
1.998,0.23,0.79,-1.85,0.17,0.74,-0.09
1.998,0.23,0.79,-1.85,0.17,0.74,-0.09
1.998,0.23,0.79,-1.85,0.17,0.74,-0.09
1.998,0.23,0.79,-1.85,0.17,0.74,-0.09
1.998,0.23,0.79,-1.85,0.16,0.74,-0.09
1.998,0.23,0.79,-1.85,0.14,0.74,-0.09
1.999,-0.5,0.04,-0.93,0.14,0.74,-0.09
1.999,-0.41,0,-0.92,0.14,0.74,-0.09
1.999,-0.41,0,-0.92,0.13,0.73,-0.09
2.001,-0.41,0,-0.92,0.12,0.72,-0.08
2.001,-0.41,0,-0.92,0.12,0.71,-0.07
2.005,-0.41,0,-0.92,0.13,0.7,-0.06
2.006,-0.41,0,-0.92,0.15,0.68,-0.04
2.006,-1.28,0.08,0.49,0.15,0.68,-0.04
2.008,-1.28,0.08,0.49,0.17,0.66,-0.03
2.009,-1.28,0.08,0.49,0.18,0.64,-0.02
2.012,-1.28,0.08,0.49,0.21,0.61,-0.01
2.016,-1.28,0.08,0.49,0.23,0.57,0
2.017,-0.9,-0.31,0.85,0.23,0.57,0
2.017,-0.9,-0.31,0.85,0.25,0.55,0
2.019,-0.9,-0.31,0.85,0.28,0.5,0
2.02,-0.9,-0.31,0.85,0.31,0.45,0
2.022,-0.9,-0.31,0.85,0.34,0.4,-0.01
2.038,-0.9,-0.31,0.85,0.35,0.37,-0.02
2.038,-0.9,-0.31,0.85,0.42,0.13,-0.1
2.038,-0.9,-0.31,0.85,0.42,0.13,-0.1
2.039,-0.9,-0.31,0.85,0.42,0.13,-0.1
2.039,-0.9,-0.31,0.85,0.42,0.11,-0.11
2.039,-0.9,-0.31,0.85,0.42,0.09,-0.12
2.039,-0.9,-0.31,0.85,0.42,0.09,-0.12
2.039,-0.9,-0.31,0.85,0.42,0.07,-0.13
2.039,-0.21,0.06,-0.3,0.42,0.07,-0.13
2.04,-0.17,0.01,-0.26,0.42,0.07,-0.13
2.04,-0.17,0.01,-0.26,0.41,0.03,-0.15
2.042,-0.17,0.01,-0.26,0.4,0,-0.17
2.045,-0.17,0.01,-0.26,0.39,-0.03,-0.2
2.045,-0.23,0.17,-0.78,0.39,-0.03,-0.2
2.046,-0.23,0.17,-0.78,0.37,-0.04,-0.2
2.048,-0.23,0.17,-0.78,0.35,-0.07,-0.23
2.049,-0.23,0.17,-0.78,0.32,-0.08,-0.25
2.052,-0.23,0.17,-0.78,0.29,-0.1,-0.26
2.055,-0.23,0.17,-0.78,0.27,-0.1,-0.27
2.055,-0.11,0.29,-1.21,0.27,-0.1,-0.27
2.056,-0.11,0.29,-1.21,0.23,-0.12,-0.3
2.058,-0.11,0.29,-1.21,0.18,-0.13,-0.33
2.06,-0.11,0.29,-1.21,0.16,-0.14,-0.36
2.062,-0.11,0.29,-1.21,0.12,-0.14,-0.38
2.078,-0.11,0.29,-1.21,0.08,-0.13,-0.39
2.078,-0.11,0.29,-1.21,-0.03,-0.1,-0.33
2.078,-0.11,0.29,-1.21,-0.03,-0.1,-0.33
2.078,-0.11,0.29,-1.21,-0.04,-0.09,-0.32
2.079,-0.11,0.29,-1.21,-0.04,-0.09,-0.32
2.079,-0.11,0.29,-1.21,-0.06,-0.09,-0.3
2.079,-0.11,0.29,-1.21,-0.06,-0.09,-0.3
2.079,-1.9,-0.14,-0.76,-0.06,-0.09,-0.3
2.079,-1.88,-0.15,-0.75,-0.06,-0.09,-0.3
2.08,-1.86,-0.16,-0.75,-0.06,-0.09,-0.3
2.08,-1.86,-0.16,-0.75,-0.07,-0.08,-0.29
2.08,-1.86,-0.16,-0.75,-0.1,-0.06,-0.26
2.085,-1.86,-0.16,-0.75,-0.11,-0.05,-0.25
2.085,-1.86,-0.16,-0.75,-0.14,-0.05,-0.24
2.086,-1.14,-0.04,-0.49,-0.14,-0.05,-0.24
2.086,-1.14,-0.04,-0.49,-0.16,-0.05,-0.23
2.088,-1.14,-0.04,-0.49,-0.19,-0.06,-0.22
2.09,-1.14,-0.04,-0.49,-0.2,-0.06,-0.22
2.092,-1.14,-0.04,-0.49,-0.21,-0.06,-0.22
2.095,-1.14,-0.04,-0.49,-0.22,-0.07,-0.22
2.095,-0.58,-0.07,0.18,-0.22,-0.07,-0.22
2.096,-0.58,-0.07,0.18,-0.23,-0.08,-0.22
2.098,-0.58,-0.07,0.18,-0.23,-0.09,-0.22
2.1,-0.58,-0.07,0.18,-0.23,-0.1,-0.22
2.102,-0.58,-0.07,0.18,-0.21,-0.11,-0.22
2.117,-0.58,-0.07,0.18,-0.22,-0.11,-0.22
2.118,-0.58,-0.07,0.18,-0.14,-0.12,-0.24
2.118,-0.58,-0.07,0.18,-0.14,-0.12,-0.24
2.118,-0.58,-0.07,0.18,-0.14,-0.12,-0.24
2.119,-0.58,-0.07,0.18,-0.14,-0.12,-0.24
2.119,-0.58,-0.07,0.18,-0.12,-0.11,-0.25
2.119,-0.58,-0.07,0.18,-0.11,-0.1,-0.25
2.119,-0.35,-0.81,1.31,-0.11,-0.1,-0.25
2.119,-0.33,-0.81,1.29,-0.11,-0.1,-0.25
2.12,-0.33,-0.81,1.29,-0.1,-0.08,-0.25
2.121,-0.33,-0.81,1.29,-0.08,-0.07,-0.25
2.122,-0.33,-0.81,1.29,-0.06,-0.05,-0.25
2.125,-0.33,-0.81,1.29,-0.04,-0.02,-0.25
2.126,-0.68,-0.83,1.16,-0.04,-0.02,-0.25
2.126,-0.68,-0.83,1.16,-0.03,0.01,-0.24
2.128,-0.68,-0.83,1.16,-0.02,0.02,-0.24
2.13,-0.68,-0.83,1.16,-0.01,0.05,-0.23
2.134,-0.68,-0.83,1.16,-0.01,0.09,-0.21
2.135,-0.68,-0.83,1.16,-0.01,0.12,-0.2
2.135,-1.59,-1.54,0.57,-0.01,0.12,-0.2
2.138,-1.59,-1.54,0.57,-0.04,0.21,-0.17
2.138,-1.59,-1.54,0.57,-0.05,0.25,-0.14
2.14,-1.59,-1.54,0.57,-0.05,0.26,-0.1
2.142,-1.59,-1.54,0.57,-0.04,0.26,-0.08
2.158,-1.59,-1.54,0.57,-0.03,0.27,-0.06
2.159,-1.59,-1.54,0.57,0.02,0.32,-0.06
2.159,-1.59,-1.54,0.57,0.02,0.32,-0.06
2.159,-1.59,-1.54,0.57,0.02,0.32,-0.07
2.159,-1.59,-1.54,0.57,0.02,0.32,-0.07
2.16,-1.59,-1.54,0.57,0.02,0.32,-0.07
2.16,-1.59,-1.54,0.57,0.02,0.31,-0.08
2.16,-1.59,-1.54,0.57,0.02,0.31,-0.09
2.161,-0.23,0.13,0.47,0.02,0.31,-0.09
2.161,-0.18,0.13,0.45,0.02,0.31,-0.09
2.161,-0.18,0.13,0.45,0.01,0.3,-0.1
2.162,-0.18,0.13,0.45,0,0.28,-0.11
2.165,-0.18,0.13,0.45,-0.01,0.27,-0.11
2.166,-0.59,-0.04,-0.16,-0.01,0.27,-0.11
2.167,-0.59,-0.04,-0.16,-0.03,0.25,-0.12
2.168,-0.59,-0.04,-0.16,-0.06,0.24,-0.12
2.17,-0.59,-0.04,-0.16,-0.07,0.23,-0.12
2.172,-0.59,-0.04,-0.16,-0.09,0.22,-0.12
2.175,-0.59,-0.04,-0.16,-0.11,0.21,-0.12
2.175,-0.44,-0.19,-0.44,-0.11,0.21,-0.12
2.175,-0.44,-0.19,-0.44,-0.13,0.21,-0.12
2.178,-0.44,-0.19,-0.44,-0.14,0.2,-0.12
2.181,-0.44,-0.19,-0.44,-0.16,0.2,-0.13
2.182,-0.44,-0.19,-0.44,-0.18,0.19,-0.13
2.2,-0.44,-0.19,-0.44,-0.2,0.18,-0.13
2.2,-0.44,-0.19,-0.44,-0.29,0.15,-0.14
2.201,-0.44,-0.19,-0.44,-0.3,0.14,-0.15
2.201,-0.44,-0.19,-0.44,-0.31,0.14,-0.15
2.201,-0.44,-0.19,-0.44,-0.31,0.14,-0.15
2.201,-0.44,-0.19,-0.44,-0.31,0.14,-0.15
2.202,-0.44,-0.19,-0.44,-0.31,0.14,-0.15
2.202,-0.44,-0.19,-0.44,-0.32,0.12,-0.15
2.202,-0.55,-0.15,-0.43,-0.32,0.12,-0.15
2.202,-0.53,-0.14,-0.45,-0.32,0.12,-0.15
2.203,-0.51,-0.13,-0.48,-0.32,0.12,-0.15
2.203,-0.51,-0.13,-0.48,-0.33,0.11,-0.16
2.203,-0.51,-0.13,-0.48,-0.35,0.11,-0.16
2.206,-0.51,-0.13,-0.48,-0.37,0.11,-0.16
2.206,-0.51,-0.13,-0.48,-0.37,0.11,-0.16
2.209,-0.51,-0.13,-0.48,-0.4,0.14,-0.15
2.209,-0.51,-0.13,-0.48,-0.4,0.14,-0.14
2.21,-0.51,-0.13,-0.48,-0.42,0.13,-0.13
2.212,-0.51,-0.13,-0.48,-0.41,0.11,-0.11
2.217,-0.51,-0.13,-0.48,-0.41,0.11,-0.11
2.218,-0.93,-0.23,0.73,-0.41,0.11,-0.11
2.218,-0.93,-0.23,0.73,-0.39,0.09,-0.09
2.227,-0.93,-0.23,0.73,-0.37,0.08,-0.09
2.228,-0.93,-0.23,0.73,-0.34,0.06,-0.08
2.228,-0.93,-0.23,0.73,-0.33,0.05,-0.08
2.234,-0.93,-0.23,0.73,-0.29,0.03,-0.07
2.235,-0.93,-0.23,0.73,-0.18,-0.04,-0.04
2.235,-0.93,-0.23,0.73,-0.18,-0.04,-0.04
2.235,-0.93,-0.23,0.73,-0.18,-0.04,-0.04
