time,ax,ay,az,wx,wy,wz
0.001,0,-0.01,0.16,-0.04,-0.08,0
0.001,0,-0.01,0.16,-0.04,-0.07,0
0.015,0,-0.01,0.16,-0.03,-0.06,0
0.016,0,-0.01,0.16,-0.01,-0.02,0
0.016,0,-0.01,0.16,-0.01,-0.02,0
0.016,0,-0.01,0.16,-0.01,-0.02,0
0.016,0,-0.01,0.16,-0.01,-0.01,0
0.016,0,-0.01,0.16,0,0,0
0.017,0,-0.01,0.16,0,0,0
0.017,0,-0.01,0.16,0,0.01,0
0.017,0.01,-0.02,0.25,0,0.01,0
0.017,0.01,-0.01,0.25,0,0.01,0
0.017,0.01,-0.01,0.25,0,0.01,0
0.018,0.01,-0.01,0.25,0.01,0.01,0
0.019,0.01,-0.01,0.25,0.01,0.02,0
0.022,0.01,-0.01,0.25,0.01,0.03,0
0.022,0.01,-0.01,0.26,0.01,0.03,0
0.022,0.01,-0.01,0.26,0.01,0.04,0
0.025,0.01,-0.01,0.26,0.02,0.04,0
0.027,0.01,-0.01,0.26,0.02,0.04,0
0.029,0.01,-0.01,0.26,0.02,0.05,0
0.032,0.01,-0.01,0.26,0.02,0.05,0
0.032,0.02,-0.02,0.26,0.02,0.05,0
0.033,0.02,-0.02,0.26,0.03,0.05,0
0.035,0.02,-0.02,0.26,0.03,0.05,0
0.037,0.02,-0.02,0.26,0.02,0.05,0
0.039,0.02,-0.02,0.26,0.02,0.05,0
0.054,0.02,-0.02,0.26,0.02,0.05,0
0.054,0.02,-0.02,0.26,0.01,0.03,0
0.054,0.02,-0.02,0.26,0.01,0.02,0
0.055,0.02,-0.02,0.26,0.01,0.02,0
0.055,0.02,-0.02,0.26,0.01,0.02,0
0.055,0.02,-0.02,0.26,0.01,0.02,0
0.055,0.02,-0.02,0.26,0.01,0.02,0
0.055,0.02,-0.01,0.22,0.01,0.02,0
0.055,0.02,-0.01,0.22,0.01,0.02,0
0.056,0.03,-0.01,0.22,0.01,0.02,0
0.056,0.03,-0.01,0.22,0.01,0.02,0
0.057,0.03,-0.01,0.22,0.01,0.01,0
0.059,0.03,-0.01,0.22,0.01,0.01,0
0.065,0.03,-0.01,0.22,0,0,0
0.066,0.02,0,0.19,0,0,0
0.066,0.02,0,0.19,0,-0.01,0
0.066,0.02,0,0.19,0,-0.01,0
0.067,0.02,0,0.19,0,-0.01,0
0.069,0.02,0,0.19,-0.01,-0.02,0
0.072,0.02,0,0.19,-0.01,-0.02,0
0.072,0.02,0,0.19,-0.01,-0.02,0
0.072,0.02,0,0.19,-0.01,-0.02,0
0.074,0.02,0,0.19,-0.01,-0.02,0
0.077,0.02,0,0.19,-0.01,-0.03,0
0.079,0.02,0,0.19,-0.02,-0.03,0
0.093,0.02,0,0.19,-0.01,-0.03,0
0.093,0.02,0,0.19,-0.01,-0.03,0
0.094,0.02,0,0.19,-0.01,-0.03,0
0.094,0.02,0,0.19,-0.01,-0.03,0
0.094,0.02,0,0.19,-0.01,-0.03,0
0.094,0.02,0,0.19,-0.01,-0.02,0
0.094,0.02,0,0.19,-0.01,-0.02,0
0.095,0.01,-0.01,0.21,-0.01,-0.02,0
0.095,0.01,-0.01,0.21,-0.01,-0.02,0
0.095,0.01,-0.01,0.21,-0.01,-0.02,0
0.097,0.01,-0.01,0.21,-0.01,-0.02,0
0.099,0.01,-0.01,0.21,-0.01,-0.01,0
0.102,0.01,-0.01,0.21,-0.01,-0.01,0
0.102,0.01,-0.01,0.22,-0.01,-0.01,0
0.103,0.01,-0.01,0.22,0,-0.01,0
0.105,0.01,-0.01,0.22,0,0,0
0.107,0.01,-0.01,0.22,0,0,0
0.109,0.01,-0.01,0.22,0,0,0
0.111,0.01,-0.01,0.22,0,0.01,0
0.112,0,-0.01,0.22,0,0.01,0
0.113,0,-0.01,0.22,0.01,0.01,0
0.115,0,-0.01,0.22,0.01,0.01,0
0.117,0,-0.01,0.22,0,0.01,0
0.119,0,-0.01,0.22,0.01,0.02,0
0.134,0,-0.01,0.22,0.01,0.02,0
0.135,0,-0.01,0.22,0.01,0.02,0
0.135,0,-0.01,0.22,0.01,0.02,0
0.135,0,-0.01,0.22,0.01,0.02,0
0.135,0,-0.01,0.22,0.01,0.01,0
0.135,0,-0.01,0.22,0.01,0.01,0
0.135,0,-0.01,0.22,0.01,0.01,0
0.136,0.01,-0.01,0.22,0.01,0.01,0
0.136,0.01,-0.01,0.22,0.01,0.01,0
0.136,0.01,-0.01,0.22,0.01,0.01,0
0.136,0.01,-0.01,0.22,0.01,0.02,0
0.137,0.01,-0.01,0.22,0.01,0.01,0
0.139,0.01,-0.01,0.22,0,0.01,0
0.142,0.01,-0.01,0.22,0,0.01,0
0.142,0.01,-0.02,0.21,0,0.01,0
0.143,0.01,-0.02,0.21,0,0.01,0
0.145,0.01,-0.02,0.21,0,0.01,0
0.148,0.01,-0.02,0.21,0,0,0
0.149,0.01,-0.02,0.21,0,0,0
0.152,0.01,-0.02,0.21,0,0,0
0.152,0.01,-0.01,0.21,0,0,0
0.153,0.01,-0.01,0.21,0,0,0
0.155,0.01,-0.01,0.21,0,-0.01,0
0.157,0.01,-0.01,0.21,0,-0.01,0
0.159,0.01,-0.01,0.21,0,0,0
0.174,0.01,-0.01,0.21,0,-0.01,0
0.174,0.01,-0.01,0.21,0,-0.01,0
0.175,0.01,-0.01,0.21,0,-0.01,0
0.175,0.01,-0.01,0.21,0,-0.01,0
0.175,0.01,-0.01,0.21,-0.01,-0.01,0
0.175,0.01,-0.01,0.21,-0.01,-0.01,0
0.176,0.01,-0.01,0.21,-0.01,-0.01,0
0.176,0.02,-0.01,0.22,-0.01,-0.01,0
0.176,0.02,-0.01,0.22,-0.01,-0.01,0
0.176,0.02,-0.01,0.22,-0.01,-0.01,0
0.176,0.02,-0.01,0.22,0,-0.01,0
0.177,0.02,-0.01,0.22,-0.01,-0.01,0
0.179,0.02,-0.01,0.22,0,-0.01,0
0.183,0.02,-0.01,0.22,-0.01,-0.01,0
0.183,0.02,-0.01,0.22,0,-0.01,0
0.183,0.02,-0.02,0.23,0,-0.01,0
0.185,0.02,-0.02,0.23,0,-0.01,0
0.187,0.02,-0.02,0.23,0,0,0
0.189,0.02,-0.02,0.23,0,0,0
0.191,0.02,-0.02,0.23,0,0,0
0.192,0.01,-0.02,0.24,0,0,0
0.193,0.01,-0.02,0.24,0,0,0
0.195,0.01,-0.02,0.24,0,0,0
0.197,0.01,-0.02,0.24,0,0,0
0.199,0.01,-0.02,0.24,0,0,0
0.213,0.01,-0.02,0.24,0,0,0
0.213,0.01,-0.02,0.24,0,0.01,0
0.214,0.01,-0.02,0.24,0,0.01,0
0.214,0.01,-0.02,0.24,0,0.01,0
0.214,0.01,-0.02,0.24,0,0.01,0
0.214,0.01,-0.02,0.24,0,0.01,0
0.214,0.01,-0.02,0.24,0.01,0.01,0
0.215,0,-0.02,0.23,0.01,0.01,0
0.215,0.01,-0.02,0.23,0.01,0.01,0
0.215,0.01,-0.02,0.23,0.01,0.01,0
0.217,0.01,-0.02,0.23,0.01,0.01,0
0.219,0.01,-0.02,0.23,0,0.01,0
0.222,0.01,-0.02,0.23,0,0.01,0
0.222,0.01,-0.02,0.23,0,0.01,0
0.223,0.01,-0.02,0.23,0,0.01,0
0.225,0.01,-0.02,0.23,0.01,0.01,0
0.227,0.01,-0.02,0.23,0,0.01,0
0.229,0.01,-0.02,0.23,0,0.01,0
0.231,0.01,-0.02,0.23,0,0.01,0
0.232,0.01,-0.02,0.23,0,0.01,0
0.233,0.01,-0.02,0.23,0,0.01,0
0.235,0.01,-0.02,0.23,0,0.01,0
0.236,0.01,-0.02,0.23,0,0,0
0.239,0.01,-0.02,0.23,0,0,0
0.254,0.01,-0.02,0.23,0,0,0
0.254,0.01,-0.02,0.23,0,0,0
0.257,0.01,-0.02,0.23,0,0,0
0.258,0.01,-0.02,0.23,0,0,0
0.258,0.01,-0.02,0.23,0,0,0
0.258,0.01,-0.02,0.23,0,-0.01,0
0.258,0.01,-0.02,0.23,0,-0.01,0
0.258,0.02,-0.01,0.22,0,-0.01,0
0.259,0.02,-0.01,0.22,0,-0.01,0
0.259,0.02,-0.01,0.22,0,-0.01,0
0.259,0.02,-0.01,0.22,-0.01,-0.01,0
0.26,0.02,-0.01,0.22,0,-0.01,0
0.265,0.02,-0.01,0.22,0,-0.01,0
0.265,0.02,-0.01,0.21,0,-0.01,0
0.266,0.02,-0.01,0.21,0,-0.01,0
0.266,0.02,-0.01,0.21,0,-0.01,0
0.268,0.02,-0.01,0.21,-0.01,-0.01,0
0.269,0.02,-0.01,0.21,0,-0.01,0
0.272,0.02,-0.01,0.21,-0.01,-0.01,0
0.273,0.03,-0.02,0.2,-0.01,-0.01,0
0.273,0.03,-0.02,0.2,-0.01,-0.01,0
0.275,0.03,-0.02,0.2,0,-0.01,0
0.277,0.03,-0.02,0.2,-0.01,-0.01,0
0.279,0.03,-0.02,0.2,0,-0.01,0
0.294,0.03,-0.02,0.2,-0.01,-0.01,0
0.294,0.03,-0.02,0.2,0,0,0
0.295,0.03,-0.02,0.2,0,0,0
0.295,0.03,-0.02,0.2,0,0,0
0.295,0.03,-0.02,0.2,0,0,0
0.295,0.03,-0.02,0.2,0,0,0
0.295,0.03,-0.02,0.2,0,0,0
0.296,0.02,-0.02,0.22,0,0,0
0.296,0.02,-0.02,0.22,0,0,0
0.296,0.02,-0.02,0.22,0,0,0
0.297,0.02,-0.02,0.22,0.01,0,0
0.299,0.02,-0.02,0.22,0,0,0
0.303,0.02,-0.02,0.22,0,0.01,0
0.303,0.02,-0.02,0.22,0,0.01,0
0.303,0.02,-0.02,0.22,0,0.01,0
0.305,0.02,-0.02,0.22,0.01,0.01,0
0.307,0.02,-0.02,0.22,0,0.01,0
0.309,0.02,-0.02,0.22,0,0.01,0
0.312,0.02,-0.02,0.22,0.01,0.01,0
0.312,0.02,-0.01,0.22,0.01,0.01,0
0.313,0.02,-0.01,0.22,0,0.01,0
0.315,0.02,-0.01,0.22,0.01,0.01,0
0.317,0.02,-0.01,0.22,0,0.01,0
0.319,0.02,-0.01,0.22,0,0.01,0
0.334,0.02,-0.01,0.22,0.01,0.01,0
0.334,0.02,-0.01,0.22,0,0.01,0
0.335,0.02,-0.01,0.22,0,0.01,0
0.335,0.02,-0.01,0.22,0,0.01,0
0.335,0.02,-0.01,0.22,0,0,0
0.335,0.02,-0.01,0.22,0,0,0
0.335,0.02,-0.01,0.22,0,0,0
0.336,0,-0.01,0.21,0,0,0
0.336,0,-0.01,0.21,0,0,0
0.336,0,-0.01,0.21,0,0,0
0.337,0,-0.01,0.21,0,0,0
0.339,0,-0.01,0.21,0,0,0
0.342,0,-0.01,0.21,0,0,0
0.343,0,-0.01,0.21,0,0,0
0.343,0,-0.01,0.21,0,0,0
0.345,0,-0.01,0.21,0,0,0
0.349,0,-0.01,0.21,-0.01,0,0
0.349,0,-0.01,0.21,0,0,0
0.352,0,-0.01,0.21,0,-0.01,0
0.352,0,-0.01,0.21,0,-0.01,0
0.353,0,-0.01,0.21,0,0,0
0.355,0,-0.01,0.21,0,-0.01,0
0.357,0,-0.01,0.21,0,-0.01,0
0.359,0,-0.01,0.21,-0.01,-0.01,0
0.374,0,-0.01,0.21,-0.01,-0.01,0
0.374,0,-0.01,0.21,0,-0.01,0
0.375,0,-0.01,0.21,0,-0.01,0
0.375,0,-0.01,0.21,0,-0.01,0
0.375,0,-0.01,0.21,0,-0.01,0
0.375,0,-0.01,0.21,-0.01,0,0
0.375,0,-0.01,0.21,-0.01,0,0
0.376,0.02,-0.03,0.21,-0.01,0,0
0.376,0.02,-0.03,0.21,-0.01,0,0
0.376,0.02,-0.03,0.21,0,-0.01,0
0.377,0.02,-0.03,0.21,0,-0.01,0
0.379,0.02,-0.03,0.21,0,-0.01,0
0.382,0.02,-0.03,0.21,0,0,0
0.382,0.02,-0.03,0.21,0,0,0
0.383,0.02,-0.03,0.21,0,0,0
0.385,0.02,-0.03,0.21,0,0,0
0.387,0.02,-0.03,0.21,0,0,0
0.389,0.02,-0.03,0.21,0,0,0
0.392,0.02,-0.03,0.21,0,0,0
0.392,0.02,-0.03,0.22,0,0,0
0.393,0.02,-0.03,0.22,0,0,0
0.395,0.02,-0.03,0.22,0,0,0
0.397,0.02,-0.03,0.22,0,0,0
0.399,0.02,-0.03,0.22,0,0.01,0
0.414,0.02,-0.03,0.22,0,0.01,0
0.414,0.02,-0.03,0.22,0,0.01,0
0.415,0.02,-0.03,0.22,0,0.01,0
0.416,0.02,-0.03,0.22,0,0.01,0
0.416,0.02,-0.03,0.22,0,0.01,0
0.417,0.02,-0.03,0.22,0,0.01,0
0.419,0.02,-0.03,0.22,0,0.01,0
0.42,0.02,-0.01,0.22,0,0.01,0
0.42,0.02,-0.01,0.22,0,0.01,0
0.42,0.02,-0.01,0.22,0,0.01,0
0.42,0.02,-0.01,0.22,0.01,0.01,0
0.421,0.02,-0.01,0.22,0,0,0
0.423,0.02,-0.01,0.22,0,0.01,0
0.423,0.02,-0.01,0.22,0,0.01,0
0.423,0.01,-0.02,0.22,0,0.01,0
0.425,0.01,-0.02,0.22,0,0.01,0
0.427,0.01,-0.02,0.22,0,0.01,0
0.429,0.01,-0.02,0.22,0,0,0
0.432,0.01,-0.02,0.22,0,0,0
0.433,0.01,-0.02,0.22,0,0,0
0.433,0.01,-0.02,0.22,0,0,0
0.435,0.01,-0.02,0.22,0,0,0
0.437,0.01,-0.02,0.22,0,0,0
0.439,0.01,-0.02,0.22,0,0,0
0.454,0.01,-0.02,0.22,0,0,0
0.454,0.01,-0.02,0.22,0,0,0
0.454,0.01,-0.02,0.22,0,0,0
0.454,0.01,-0.02,0.22,0,0,0
0.454,0.01,-0.02,0.22,0,0,0
0.455,0.01,-0.02,0.22,0,0,0
0.455,0.01,-0.02,0.22,0,-0.01,0
0.455,0.01,-0.02,0.21,0,-0.01,0
0.455,0.01,-0.02,0.21,0,-0.01,0
0.455,0.01,-0.02,0.21,0,-0.01,0
0.457,0.01,-0.02,0.21,0,0,0
0.459,0.01,-0.02,0.21,0,0,0
0.466,0.01,-0.02,0.21,-0.01,-0.01,0
0.466,0.01,-0.02,0.21,0,0,0
0.467,0,-0.02,0.21,0,0,0
0.467,0,-0.02,0.21,0,-0.01,0
0.467,0,-0.02,0.21,0,-0.01,0
0.47,0,-0.02,0.21,0,-0.01,0
0.472,0,-0.02,0.21,0,0,0
0.472,0.01,-0.02,0.21,0,0,0
0.473,0.01,-0.02,0.21,0,0,0
0.475,0.01,-0.02,0.21,0,-0.01,0
0.477,0.01,-0.02,0.21,0,0,0
0.479,0.01,-0.02,0.21,0,0,0
0.494,0.01,-0.02,0.21,0,0,0
0.494,0.01,-0.02,0.21,0,0,0
0.494,0.01,-0.02,0.21,0,0,0
0.494,0.01,-0.02,0.21,0,0,0
0.495,0.01,-0.02,0.21,0,0,0
0.495,0.01,-0.02,0.21,0,0,0
0.495,0.01,-0.02,0.21,0,0,0
0.495,0.02,-0.01,0.21,0,0,0
0.495,0.02,-0.01,0.21,0,0,0
0.496,0.02,-0.01,0.21,0,0,0
0.497,0.02,-0.01,0.21,0,0,0
0.499,0.02,-0.01,0.21,0,0,0
0.502,0.02,-0.01,0.21,0,0,0
0.502,0.02,0,0.22,0,0,0
0.502,0.02,0,0.22,0,0,0
0.505,0.02,0,0.22,0,0,0
0.507,0.02,0,0.22,0,0.01,0
0.509,0.02,0,0.22,0,0.01,0
0.512,0.02,0,0.22,0,0,0
0.512,0.01,0.01,0.27,0,0,0
0.513,0.01,0.01,0.27,0,0,0
0.515,0.01,0.01,0.27,0,0,0
0.517,0.01,0.01,0.27,0,0.01,0
0.518,0.01,0.01,0.27,0,0,0
0.534,0.01,0.01,0.27,0,0,0
0.534,0.01,0.01,0.27,0,0,0
0.534,0.01,0.01,0.27,0,0,0
0.535,0.01,0.01,0.27,-0.01,0,0
0.535,0.01,0.01,0.27,-0.01,0,0
0.535,0.01,0.01,0.27,0,0,0
0.535,0.01,0.01,0.27,0,0,0
0.535,0.02,-0.03,0.21,0,0,0
0.536,0.02,-0.03,0.21,0,0,0
0.536,0.02,-0.03,0.21,0,0,0
0.537,0.02,-0.03,0.21,0,0,0
0.539,0.02,-0.03,0.21,0,0,0
0.542,0.02,-0.03,0.21,0,0,0
0.542,0.02,-0.02,0.21,0,0,0
0.543,0.02,-0.02,0.21,0,0,0
0.546,0.02,-0.02,0.21,0,0,0
0.55,0.02,-0.02,0.21,0,0,0
0.55,0.02,-0.02,0.21,0,0,0
0.552,0.02,-0.02,0.21,0,0,0
0.553,0.01,-0.01,0.22,0,0,0
0.553,0.01,-0.01,0.22,0,0,0
0.555,0.01,-0.01,0.22,0,0,0
0.557,0.01,-0.01,0.22,0,0,0
0.559,0.01,-0.01,0.22,0,0,0
0.573,0.01,-0.01,0.22,0,0,0
0.574,0.01,-0.01,0.22,0,0,0
0.574,0.01,-0.01,0.22,0,0,0
0.575,0.01,-0.01,0.22,0,0,0
0.575,0.01,-0.01,0.22,0,0,0
0.575,0.01,-0.01,0.22,0,0,0
0.576,0.01,-0.01,0.22,0,0,0
0.576,0.03,-0.03,0.24,0,0,0
0.576,0.03,-0.03,0.24,0,0,0
0.577,0.03,-0.03,0.24,0,0,0
0.581,0.03,-0.03,0.24,0,0,0
0.582,0.03,-0.03,0.24,0,0,0
0.583,0.03,-0.03,0.24,0,0,0
0.584,0.03,-0.03,0.24,0,0,0
0.584,-0.01,0.01,0.26,0,0,0
0.586,-0.01,0.01,0.26,0,0,0
0.587,-0.01,0.01,0.26,0,0,0
0.589,-0.01,0.01,0.26,0,0,0
0.592,-0.01,0.01,0.26,0,0,0
0.592,0.04,0.03,0.21,0,0,0
0.593,0.04,0.03,0.21,0,0,0
0.595,0.04,0.03,0.21,0,0,0
0.597,0.04,0.03,0.21,0,0,0
0.6,0.04,0.03,0.21,0,0,0
0.617,0.04,0.03,0.21,0,0,0
0.617,0.04,0.03,0.21,0,0,0
0.618,0.04,0.03,0.21,0,0,0
0.618,0.04,0.03,0.21,0,0,0
0.618,0.04,0.03,0.21,0,0,0
0.618,0.04,0.03,0.21,0,0,0
0.618,0.04,0.03,0.21,0,0,0
0.619,0.04,0.03,0.21,0,0,0
0.619,0.03,-0.01,0.19,0,0,0
0.619,0.03,-0.01,0.19,0,0,0
0.619,0.03,-0.01,0.19,0,0,0
0.619,0.03,-0.01,0.19,0,0,0
0.622,0.03,-0.01,0.19,0,0,0
0.622,0.05,-0.02,0.17,0,0,0
0.623,0.05,-0.02,0.17,0,0,0
0.625,0.05,-0.02,0.17,0,0,0
0.626,0.05,-0.02,0.17,0,0,0
0.628,0.05,-0.02,0.17,0,0,0
0.632,0.05,-0.02,0.17,0,0,0
0.633,0.04,-0.04,0.19,0,0,0
0.634,0.04,-0.04,0.19,0,0,0
0.635,0.04,-0.04,0.19,0,0,0
0.637,0.04,-0.04,0.19,0,0,0
0.64,0.04,-0.04,0.19,0,0,0
0.655,0.04,-0.04,0.19,0,0,0
0.656,0.04,-0.04,0.19,0,0,0
0.656,0.04,-0.04,0.19,0,0,0
0.656,0.04,-0.04,0.19,0,0,0
0.656,0.04,-0.04,0.19,0,0,0
0.656,0.04,-0.04,0.19,0,0,0
0.657,0.04,-0.04,0.19,0,0,0
0.657,0.01,-0.04,0.17,0,0,0
0.657,0.01,-0.04,0.17,0,0,0
0.657,0.01,-0.04,0.17,0,0,0
0.658,0.01,-0.04,0.17,0,0,0
0.659,0.01,-0.04,0.17,0,0,0
0.664,0.01,-0.04,0.17,0,0,0
0.664,0.01,-0.04,0.17,0,0,0
0.665,0,-0.04,0.2,0,0,0
0.665,0,-0.04,0.2,0,0,0
0.668,0,-0.04,0.2,0,0,0
0.669,0,-0.04,0.2,0,0,0
0.672,0,-0.04,0.2,0,0,0
0.673,0.01,-0.03,0.24,0,0,0
0.674,0.01,-0.03,0.24,0,0,0
0.675,0.01,-0.03,0.24,0,0,0
0.677,0.01,-0.03,0.24,0,0,0
0.68,0.01,-0.03,0.24,0,0,0
0.694,0.01,-0.03,0.24,0,0,0
0.694,0.01,-0.03,0.24,0,0,0
0.694,0.01,-0.03,0.24,0,0,0
0.695,0.01,-0.03,0.24,0,0,0
0.695,0.01,-0.03,0.24,0,0,0
0.695,0.01,-0.03,0.24,0,0,0
0.696,0.01,-0.03,0.24,0,0,0
0.696,0.03,0.02,0.22,0,0,0
0.696,0.03,0.02,0.22,0,0,0
0.697,0.03,0.02,0.22,0,0,0
0.698,0.03,0.02,0.22,0,0,0
0.7,0.03,0.02,0.22,0,0,0
0.703,0.03,0.02,0.22,0,0,0
0.703,0.02,0.01,0.21,0,0,0
0.704,0.02,0.01,0.21,0,0,0
0.705,0.02,0.01,0.21,0,0,0
0.707,0.02,0.01,0.21,0,0,0
0.709,0.02,0.01,0.21,0,0,0
0.712,0.02,0.01,0.21,0,0,0
0.712,0.04,-0.01,0.22,0,0,0
0.714,0.04,-0.01,0.22,0,0,0
0.715,0.04,-0.01,0.22,0,0,0
0.717,0.04,-0.01,0.22,0,0,0
0.719,0.04,-0.01,0.22,0,-0.01,0
0.738,0.04,-0.01,0.22,0,-0.01,0
0.738,0.04,-0.01,0.22,0,0,0
0.739,0.04,-0.01,0.22,0,0,0
0.739,0.04,-0.01,0.22,0,0,0
0.739,0.04,-0.01,0.22,0,0,0
0.74,0.04,-0.01,0.22,0,0,0
0.74,0.04,-0.01,0.22,0,0,0
0.74,0.04,-0.01,0.22,0,0,0
0.74,0.04,-0.01,0.22,0,0,0
0.741,0.04,-0.02,0.2,0,0,0
0.741,0.04,-0.02,0.2,0,0,0
0.741,0.04,-0.02,0.2,0,0,0
0.742,0.04,-0.02,0.2,0,0,0
0.742,0.02,-0.02,0.27,0,0,0
0.747,0.02,-0.02,0.27,0,0,0
0.747,0.02,-0.02,0.27,0,0,0
0.747,0.02,-0.02,0.27,0,0,0
0.752,0.02,-0.02,0.27,0,0,0
0.752,0.02,-0.02,0.27,0,0,0
0.752,0.01,-0.03,0.28,0,0,0
0.753,0.01,-0.03,0.28,0,0,0
0.756,0.01,-0.03,0.28,0,0,0
0.757,0.01,-0.03,0.28,0,0,0
0.76,0.01,-0.03,0.28,0,0.01,0
0.775,0.01,-0.03,0.28,0,0,0
0.776,0.01,-0.03,0.28,0,0,0
0.776,0.01,-0.03,0.28,0.01,0,0
0.776,0.01,-0.03,0.28,0,0.01,0
0.777,0.01,-0.03,0.28,0,0.01,0
0.777,0.01,-0.03,0.28,0,0.01,0
0.777,0.01,-0.03,0.28,0,0.01,0
0.777,0.01,-0.03,0.28,0,0,0
0.777,-0.02,0,0.19,0,0,0
0.778,-0.01,0,0.19,0,0,0
0.778,-0.01,0,0.19,0,0,0
0.782,-0.01,0,0.19,0,0,0
0.783,-0.01,0,0.19,0,0,0
0.783,0,0.01,0.23,0,0,0
0.788,0,0.01,0.23,0,0,0
0.789,0,0.01,0.23,0,0,0
0.789,0,0.01,0.23,0,0,0
0.789,0,0.01,0.23,0,0,0
0.792,0,0.01,0.23,0,0,0
0.792,0.01,0,0.22,0,0,0
0.793,0.01,0,0.22,0,0,0
0.795,0.01,0,0.22,0,0,0
0.8,0.01,0,0.22,0,0,0
0.8,0.01,0,0.22,0,0,0
0.814,0.01,0,0.22,0,0,0
0.814,0.01,0,0.22,0,-0.01,0
0.815,0.01,0,0.22,0,-0.01,0
0.815,0.01,0,0.22,0,-0.01,0
0.815,0.01,0,0.22,0,-0.01,0
0.816,0.01,0,0.22,0,0,0
0.816,0.01,0,0.22,0,0,0
0.816,0.03,-0.04,0.21,0,0,0
0.816,0.03,-0.04,0.21,0,0,0
0.816,0.03,-0.04,0.21,0,0,0
0.82,0.03,-0.04,0.21,0,-0.01,0
0.82,0.03,-0.04,0.21,0,0,0
0.823,0.03,-0.04,0.21,0,-0.01,0
0.823,0.03,-0.02,0.21,0,-0.01,0
0.823,0.03,-0.02,0.21,0,-0.01,0
0.824,0.03,-0.02,0.21,0,-0.01,0
0.826,0.03,-0.02,0.21,0,0,0
0.829,0.03,-0.02,0.21,0,0,0
0.832,0.03,-0.02,0.21,0,0,0
0.833,0.02,0,0.25,0,0,0
0.836,0.02,0,0.25,0,0,0
0.836,0.02,0,0.25,0,0,0
0.837,0.02,0,0.25,0,0,0
0.839,0.02,0,0.25,0,0,0
0.857,0.02,0,0.25,0,0,0
0.857,0.02,0,0.25,0,0,0
0.857,0.02,0,0.25,0,0,0
0.858,0.02,0,0.25,0,0,0
0.858,0.02,0,0.25,0,0,0
0.858,0.02,0,0.25,0,0.01,0
0.858,0.02,0,0.25,0,0.01,0
0.858,0.01,-0.02,0.2,0,0.01,0
0.858,0.02,-0.02,0.2,0,0.01,0
0.859,0.02,-0.02,0.2,0,0.01,0
0.859,0.02,-0.02,0.2,0.01,0.01,0
0.859,0.02,-0.02,0.2,0.01,0.01,0
0.862,0.02,-0.02,0.2,0,0.01,0
0.864,0.02,-0.01,0.22,0,0.01,0
0.864,0.02,-0.01,0.22,0.01,0.01,0
0.865,0.02,-0.01,0.22,0,0.01,0
0.867,0.02,-0.01,0.22,0,0.01,0
0.869,0.02,-0.01,0.22,0,0.01,0
0.873,0.02,-0.01,0.22,0,0.01,0
0.873,0.02,-0.01,0.22,0,0.01,0
0.873,-0.01,0.01,0.23,0,0.01,0
0.875,-0.01,0.01,0.23,0,0.01,0
0.881,-0.01,0.01,0.23,0,0,0
0.881,-0.01,0.01,0.23,0,0.01,0
0.895,-0.01,0.01,0.23,0,0.01,0
0.895,-0.01,0.01,0.23,0,0,0
0.896,-0.01,0.01,0.23,0,0,0
0.896,-0.01,0.01,0.23,0,0,0
0.896,-0.01,0.01,0.23,0,0,0
0.896,-0.01,0.01,0.23,0,0,0
0.897,-0.01,0.01,0.23,0,0,0
0.897,-0.01,0.01,0.23,0,0,0
0.897,0,-0.01,0.19,0,0,0
0.898,0,-0.01,0.19,0,0,0
0.898,0,-0.01,0.19,0,0,0
0.898,0,-0.01,0.19,0,0,0
0.899,0,-0.01,0.19,-0.01,-0.01,0
0.905,0,-0.01,0.19,0,-0.01,0
0.905,0,-0.01,0.19,0,-0.01,0
0.906,0.02,-0.04,0.18,0,-0.01,0
0.906,0.02,-0.04,0.18,0,-0.01,0
0.907,0.02,-0.04,0.18,0,-0.01,0
0.91,0.02,-0.04,0.18,0,-0.01,0
0.913,0.02,-0.04,0.18,0,-0.01,0
0.917,0.04,-0.04,0.17,0,-0.01,0
0.919,0.04,-0.04,0.17,0,0,0
0.919,0.04,-0.04,0.17,0,-0.01,0
0.92,0.04,-0.04,0.17,0,-0.01,0
0.92,0.04,-0.04,0.17,0,-0.01,0
0.937,0.04,-0.04,0.17,0,0,0
0.937,0.04,-0.04,0.17,0,0,0
0.937,0.04,-0.04,0.17,0,0,0
0.938,0.04,-0.04,0.17,0,0,0
0.938,0.04,-0.04,0.17,0,0,0
0.938,0.04,-0.04,0.17,0,0,0
0.938,0.04,-0.04,0.17,0,0,0
0.938,0.04,-0.04,0.17,0,0,0
0.939,0.04,-0.02,0.21,0,0,0
0.939,0.04,-0.02,0.21,0,0,0
0.939,0.04,-0.02,0.21,0,0,0
0.939,0.04,-0.02,0.21,0,0,0
0.943,0.04,-0.02,0.21,0,0,0
0.943,0.04,-0.02,0.21,0,0,0
0.943,0.02,0,0.2,0,0,0
0.945,0.02,0,0.2,0,0,0
0.95,0.02,0,0.2,0,0.01,0
0.951,0.02,0,0.2,0,0,0
0.951,0.02,0,0.2,0,0,0
0.952,0,0,0.31,0,0,0
0.952,0,0,0.31,0,0,0
0.955,0,0,0.31,0,0.01,0
0.957,0,0,0.31,0,0.01,0
0.959,0,0,0.31,0,0.01,0
0.974,0,0,0.31,0,0.01,0
0.975,0,0,0.31,0,0.01,0
0.975,0,0,0.31,0,0.01,0
0.975,0,0,0.31,0,0,0
0.975,0,0,0.31,0,0,0
0.976,0,0,0.31,0,0,0
0.976,0,0,0.31,0,0,0
0.976,0.01,0,0.24,0,0,0
0.976,0.01,0,0.24,0,0,0
0.976,0.01,0,0.24,0,0,0
0.977,0.01,0,0.24,0,0,0
0.977,0.01,0,0.24,0,0.01,0
0.979,0.01,0,0.24,0,0,0
0.982,0.01,0,0.24,0,0,0
0.983,-0.03,-0.02,0.23,0,0,0
0.983,-0.03,-0.02,0.23,0,0,0
0.985,-0.03,-0.02,0.23,0,0,0
0.987,-0.03,-0.02,0.23,0,0,0
0.989,-0.03,-0.02,0.23,0,0,0
0.992,-0.03,-0.02,0.23,0,0,0
0.992,0,-0.05,0.25,0,0,0
0.993,0,-0.05,0.25,0,0,0
0.995,0,-0.05,0.25,0,0,0
0.997,0,-0.05,0.25,0,0,0
0.999,0,-0.05,0.25,0,0,0
1.016,0,-0.05,0.25,0,-0.01,0
1.017,0,-0.05,0.25,0,-0.01,0
1.017,0,-0.05,0.25,0,-0.01,0
1.017,0,-0.05,0.25,0,0,0
1.018,0,-0.05,0.25,0,0,0
1.018,0,-0.05,0.25,0,0,0
1.018,0,-0.05,0.25,0,0,0
1.018,0,-0.05,0.25,0,0,0
1.018,0.03,-0.03,0.24,0,0,0
1.019,0.02,-0.03,0.24,0,0,0
1.02,0.02,-0.03,0.24,0,0,0
1.02,0.02,-0.03,0.24,0,-0.01,0
1.021,0.02,-0.03,0.24,0,0,0
1.023,0.02,-0.03,0.24,0,0,0
1.023,0.02,-0.03,0.24,0,0,0
1.023,0.01,-0.01,0.27,0,0,0
1.025,0.01,-0.01,0.27,0,0,0
1.027,0.01,-0.01,0.27,0,0,0
1.029,0.01,-0.01,0.27,-0.01,0,0
1.032,0.01,-0.01,0.27,0,0,0
1.032,0.02,0,0.33,0,0,0
1.033,0.02,0,0.33,0,0,0
1.035,0.02,0,0.33,0,0,0
1.037,0.02,0,0.33,0,0,0
1.039,0.02,0,0.33,0,0,0
1.056,0.02,0,0.33,0,0,0
1.057,0.02,0,0.33,0,0,0
1.057,0.02,0,0.33,0,0,0
1.058,0.02,0,0.33,0,0,0
1.058,0.02,0,0.33,0,0,0
1.058,0.02,0,0.33,0,0,0
1.058,0.02,0,0.33,0,0,0
1.058,0.02,0,0.33,0,0,0
1.058,0.01,-0.02,0.26,0,0,0
1.059,0.01,-0.02,0.26,0,0,0
1.059,0.01,-0.02,0.26,0,0,0
1.06,0.01,-0.02,0.26,0,0,0
1.063,0.01,-0.02,0.26,0,0,0
1.063,0.01,-0.02,0.26,0,0,0
1.063,0.03,0,0.21,0,0,0
1.065,0.03,0,0.21,0,0,0
1.067,0.03,0,0.21,0,0,0
1.069,0.03,0,0.21,0,0,0
1.072,0.03,0,0.21,0,0,0
1.075,0.01,0,0.24,0,0,0
1.076,0.01,0,0.24,0,0,0
1.076,0.01,0,0.24,0,0,0
1.077,0.01,0,0.24,0,0,0
1.079,0.01,0,0.24,0,0,0
1.095,0.01,0,0.24,0,0,0
1.095,0.01,0,0.24,0,0,0
1.095,0.01,0,0.24,0,0,0
1.096,0.01,0,0.24,0,0,0
1.096,0.01,0,0.24,0,0,0
1.096,0.01,0,0.24,0,0,0
1.096,0.01,0,0.24,0,0,0
1.096,-0.02,-0.01,0.23,0,0,0
1.097,-0.02,-0.01,0.23,0,0,0
1.097,-0.02,-0.01,0.23,0,0,0
1.099,-0.02,-0.01,0.23,0,0,0
1.099,-0.02,-0.01,0.23,0,0,0
1.102,-0.02,-0.01,0.23,0,0,0
1.103,0,-0.03,0.17,0,0,0
1.103,0,-0.03,0.17,0,0,0
1.105,0,-0.03,0.17,0,0,0
1.107,0,-0.03,0.17,0,0,0
1.109,0,-0.03,0.17,0,0,0
1.113,0,-0.03,0.17,0,0,0
1.114,-0.01,0,0.2,0,0,0
1.116,-0.01,0,0.2,0,0,0
1.118,-0.01,0,0.2,0,0,0
1.119,-0.01,0,0.2,0,0,0
1.12,-0.01,0,0.2,0,0,0
1.136,-0.01,0,0.2,0,0,0
1.136,-0.01,0,0.2,0,0,0
1.137,-0.01,0,0.2,0,0,0
1.137,-0.01,0,0.2,0,0,0
1.137,-0.01,0,0.2,0,0,0
1.137,-0.01,0,0.2,0,0,0
1.138,-0.01,0,0.2,0,0,0
1.138,0.03,-0.01,0.17,0,0,0
1.138,0.03,-0.01,0.17,0,0,0
1.138,0.03,-0.01,0.17,0,0,0
1.139,0.03,-0.01,0.17,0,0,0
1.139,0.03,-0.01,0.17,0,0,0
1.139,0.03,-0.01,0.17,0,0,0
1.142,0.03,-0.01,0.17,0,0,0
1.143,0.05,0,0.14,0,0,0
1.143,0.05,0,0.14,0,0,0
1.145,0.05,0,0.14,0,0,0
1.151,0.05,0,0.14,0,0,0
1.152,0.05,0,0.14,0,0,0
1.153,0.05,0,0.14,0,0,0
1.153,0.06,0,0.15,0,0,0
1.153,0.06,0,0.15,0,0,0
1.155,0.06,0,0.15,0,0,0
1.158,0.06,0,0.15,0,0,0
1.159,0.06,0,0.15,0,0,0
1.175,0.06,0,0.15,0,0,0
1.176,0.06,0,0.15,0,-0.01,0
1.176,0.06,0,0.15,0,-0.01,0
1.176,0.06,0,0.15,0,-0.01,0
1.176,0.06,0,0.15,0,0,0
1.177,0.06,0,0.15,0,0,0
1.177,0.06,0,0.15,0,0,0
1.177,0.06,0,0.15,0,0,0
1.177,0.05,-0.02,0.13,0,0,0
1.177,0.04,-0.02,0.13,0,0,0
1.178,0.04,-0.02,0.13,0,0,0
1.179,0.04,-0.02,0.13,0,0,0
1.183,0.04,-0.02,0.13,0,0,0
1.185,0.04,-0.02,0.13,0,0,0
1.185,0.01,-0.04,0.24,0,0,0
1.185,0.01,-0.04,0.24,0,0,0
1.187,0.01,-0.04,0.24,0,0,0
1.189,0.01,-0.04,0.24,0,0,0
1.192,0.01,-0.04,0.24,0,0,0
1.193,0.01,-0.04,0.25,0,0,0
1.193,0.01,-0.04,0.25,0,0.01,0
1.195,0.01,-0.04,0.25,0,0,0
1.197,0.01,-0.04,0.25,0,0.01,0
1.2,0.01,-0.04,0.25,0,0,0
1.215,0.01,-0.04,0.25,0,0,0
1.216,0.01,-0.04,0.25,0,0.01,0
1.217,0.01,-0.04,0.25,0,0.01,0
1.217,0.01,-0.04,0.25,0,0.01,0
1.217,0.01,-0.04,0.25,0,0.01,0
1.217,0.01,-0.04,0.25,0,0.01,0
1.218,0.01,-0.04,0.25,0,0.01,0
1.218,0.01,-0.04,0.25,0,0,0
1.218,-0.02,0.02,0.26,0,0,0
1.218,-0.02,0.02,0.26,0,0,0
1.219,-0.02,0.02,0.26,0,0.01,0
1.219,-0.02,0.02,0.26,0,0.01,0
1.223,-0.02,0.02,0.26,0,0.01,0
1.223,0.01,0.02,0.22,0,0.01,0
1.223,0.01,0.02,0.22,0,0,0
1.225,0.01,0.02,0.22,0,0,0
1.227,0.01,0.02,0.22,0,0,0
1.229,0.01,0.02,0.22,0.01,0,0
1.233,0.01,0.02,0.22,0,0,0
1.233,0.01,0,0.23,0,0,0
1.234,0.01,0,0.23,0,0,0
1.235,0.01,0,0.23,0,0,0
1.238,0.01,0,0.23,0,0,0
1.239,0.01,0,0.23,0,0,0
1.257,0.01,0,0.23,0,0,0
1.257,0.01,0,0.23,0,-0.01,0
1.258,0.01,0,0.23,0,-0.01,0
1.258,0.01,0,0.23,-0.01,-0.01,0
1.258,0.01,0,0.23,-0.01,-0.01,0
1.258,0.01,0,0.23,-0.01,-0.01,0
1.258,0.01,0,0.23,0,-0.01,0
1.259,0.01,0,0.23,0,-0.01,0
1.259,0.05,-0.04,0.21,0,-0.01,0
1.259,0.05,-0.04,0.21,0,-0.01,0
1.259,0.05,-0.04,0.21,0,-0.01,0
1.26,0.05,-0.04,0.21,0,-0.01,0
1.26,0.05,-0.04,0.21,0,-0.01,0
1.263,0.05,-0.04,0.21,0,-0.01,0
1.263,0.08,0,0.2,0,-0.01,0
1.266,0.08,0,0.2,-0.01,-0.01,0
1.266,0.08,0,0.2,0,-0.01,0
1.267,0.08,0,0.2,0,-0.01,0
1.269,0.08,0,0.2,0,-0.01,0
1.272,0.08,0,0.2,0,0,0
1.272,0.07,-0.01,0.18,0,0,0
1.273,0.07,-0.01,0.18,0,0,0
1.275,0.07,-0.01,0.18,0,0,0
1.277,0.07,-0.01,0.18,0,0,0
1.279,0.07,-0.01,0.18,0,0,0
1.295,0.07,-0.01,0.18,0,0,0
1.296,0.07,-0.01,0.18,-0.06,-0.21,-0.01
1.296,0.07,-0.01,0.18,-0.06,-0.21,-0.01
1.296,0.07,-0.01,0.18,-0.06,-0.21,-0.01
1.297,0.07,-0.01,0.18,-0.06,-0.21,-0.01
1.297,0.07,-0.01,0.18,-0.11,-0.27,0
1.297,0.07,-0.01,0.18,-0.16,-0.32,-0.01
1.298,0.17,0.28,-1.66,-0.16,-0.32,-0.01
1.298,0.15,0.29,-1.66,-0.16,-0.32,-0.01
1.298,0.15,0.29,-1.66,-0.22,-0.44,-0.01
1.298,0.15,0.29,-1.66,-0.25,-0.48,-0.01
1.3,0.15,0.29,-1.66,-0.28,-0.53,-0.04
1.303,0.15,0.29,-1.66,-0.1,-0.03,-0.1
1.306,0.15,0.29,-1.66,0.05,-0.17,-0.2
1.308,1.21,0.08,6.1,0.05,-0.17,-0.2
1.308,1.21,0.08,6.1,0.04,0.12,-0.26
1.308,1.21,0.08,6.1,-0.03,0.09,-0.3
1.309,1.21,0.08,6.1,-0.03,0.07,-0.34
1.312,1.21,0.08,6.1,0.02,-0.04,-0.37
1.312,-1.93,0.14,2.19,0.02,-0.04,-0.37
1.316,-1.93,0.14,2.19,-0.03,-0.08,-0.42
1.317,-1.93,0.14,2.19,-0.07,-0.09,-0.47
1.318,-1.93,0.14,2.19,-0.03,0.01,-0.54
1.319,-1.93,0.14,2.19,0.01,0.02,-0.57
1.334,-1.93,0.14,2.19,-0.02,0.06,-0.59
1.334,-1.93,0.14,2.19,-0.04,-0.08,-0.58
1.334,-1.93,0.14,2.19,-0.04,-0.08,-0.58
1.335,-1.93,0.14,2.19,-0.04,-0.08,-0.58
1.335,-1.93,0.14,2.19,-0.04,-0.1,-0.56
1.335,-1.93,0.14,2.19,-0.05,-0.03,-0.54
1.335,-1.93,0.14,2.19,-0.05,-0.03,-0.54
1.335,0.68,-0.79,-0.4,-0.05,-0.03,-0.54
1.335,0.67,-0.79,-0.4,-0.05,-0.03,-0.54
1.335,0.66,-0.79,-0.4,-0.05,-0.03,-0.54
1.336,0.66,-0.79,-0.4,-0.08,0.1,-0.5
1.337,0.66,-0.79,-0.4,-0.12,0.3,-0.42
1.339,0.66,-0.79,-0.4,-0.18,0.44,-0.34
1.342,0.66,-0.79,-0.4,-0.21,0.48,-0.3
1.342,0.47,0.34,0.49,-0.21,0.48,-0.3
1.343,0.47,0.34,0.49,-0.29,0.51,-0.22
1.345,0.47,0.34,0.49,-0.42,0.53,-0.12
1.352,0.47,0.34,0.49,-0.48,0.53,-0.07
1.353,0.47,0.34,0.49,-0.62,0.45,0.04
1.353,0.47,0.34,0.49,-0.7,0.31,0.14
1.353,0.11,0.78,3.52,-0.7,0.31,0.14
1.354,0.11,0.78,3.52,-0.48,-0.05,0.14
1.356,0.11,0.78,3.52,-0.42,-0.17,0.13
1.357,0.11,0.78,3.52,-0.44,-0.04,0.17
1.359,0.11,0.78,3.52,-0.4,0,0.19
1.375,0.11,0.78,3.52,-0.33,-0.02,0.15
1.376,0.11,0.78,3.52,-0.28,0.13,0.02
1.376,0.11,0.78,3.52,-0.29,0.12,-0.01
1.376,0.11,0.78,3.52,-0.29,0.12,-0.03
1.377,0.11,0.78,3.52,-0.29,0.12,-0.03
1.377,0.11,0.78,3.52,-0.29,0.12,-0.03
1.377,0.11,0.78,3.52,-0.29,0.12,-0.03
1.378,0.11,0.78,3.52,-0.32,0.12,-0.06
1.378,-0.23,0.09,0.74,-0.32,0.12,-0.06
1.378,-0.23,0.13,0.74,-0.32,0.12,-0.06
1.378,-0.22,0.15,0.74,-0.32,0.12,-0.06
1.379,-0.22,0.15,0.74,-0.34,0.11,-0.08
1.38,-0.22,0.15,0.74,-0.36,0.09,-0.11
1.385,-0.22,0.15,0.74,-0.4,0.12,-0.13
1.386,-0.22,0.15,0.74,-0.42,0.14,-0.12
1.386,-0.22,0.15,0.74,-0.43,0.14,-0.12
1.386,-0.04,-0.56,0.3,-0.43,0.14,-0.12
1.387,-0.04,-0.56,0.3,-0.45,0.13,-0.09
1.389,-0.04,-0.56,0.3,-0.46,0.09,-0.06
1.392,-0.03,-0.52,0.3,-0.46,0.09,-0.06
1.392,-0.03,-0.52,0.3,-0.45,0.06,-0.04
1.393,-0.03,-0.52,0.3,-0.44,0.03,0.01
1.395,-0.03,-0.52,0.3,-0.42,0.02,0.05
1.399,-0.03,-0.52,0.3,-0.39,0.03,0.1
1.404,-0.03,-0.52,0.3,-0.38,0.05,0.13
1.42,-0.03,-0.52,0.3,-0.34,0.08,0.17
1.42,-0.03,-0.52,0.3,-0.25,0.14,0.31
1.421,-0.03,-0.52,0.3,-0.25,0.14,0.31
1.421,-0.03,-0.52,0.3,-0.25,0.14,0.31
1.421,-0.03,-0.52,0.3,-0.25,0.13,0.32
1.421,-0.03,-0.52,0.3,-0.25,0.13,0.32
1.421,-0.03,-0.52,0.3,-0.24,0.13,0.33
1.422,-0.03,-0.52,0.3,-0.25,0.1,0.33
1.422,-0.03,-0.52,0.3,-0.25,0.09,0.32
1.422,-0.06,-0.01,0.1,-0.25,0.09,0.32
1.422,-0.04,0.05,0.11,-0.25,0.09,0.32
1.422,-0.04,0.05,0.11,-0.26,0.1,0.31
1.423,-0.04,0.05,0.11,-0.27,0.1,0.3
1.423,-0.04,0.05,0.11,-0.27,0.11,0.28
1.424,0.76,-0.75,0.3,-0.27,0.11,0.28
1.425,0.76,-0.75,0.3,-0.29,0.13,0.26
1.427,0.76,-0.75,0.3,-0.3,0.14,0.24
1.429,0.76,-0.75,0.3,-0.31,0.13,0.23
1.432,0.76,-0.75,0.3,-0.35,0.1,0.21
1.432,1.32,-2.02,0.2,-0.35,0.1,0.21
1.433,1.32,-2.02,0.2,-0.39,0.03,0.2
1.435,1.32,-2.02,0.2,-0.42,-0.02,0.19
1.437,1.32,-2.02,0.2,-0.51,-0.13,0.2
1.439,1.32,-2.02,0.2,-0.63,-0.26,0.21
1.457,1.32,-2.02,0.2,-0.76,-0.4,0.23
1.458,1.32,-2.02,0.2,-1.32,-1.01,0.36
1.458,1.32,-2.02,0.2,-1.32,-1.01,0.36
1.458,1.32,-2.02,0.2,-1.32,-1.01,0.36
1.458,1.32,-2.02,0.2,-1.38,-1.11,0.37
1.459,1.32,-2.02,0.2,-1.45,-1.21,0.4
1.459,1.32,-2.02,0.2,-1.45,-1.21,0.4
1.459,0.88,-1.18,0.91,-1.45,-1.21,0.4
1.459,0.75,-0.98,0.93,-1.45,-1.21,0.4
1.46,0.75,-0.98,0.93,-1.47,-1.2,0.45
1.46,0.75,-0.98,0.93,-1.3,-0.74,0.43
1.46,0.75,-0.98,0.93,-1.19,-0.67,0.4
1.462,0.75,-0.98,0.93,-1.41,-1.09,0.43
1.462,1.01,0.1,-1.69,-1.41,-1.09,0.43
1.464,1.01,0.1,-1.69,-1.56,-1.27,0.46
1.465,1.01,0.1,-1.69,-1.5,-1.19,0.44
1.467,1.01,0.1,-1.69,-1.56,-1.31,0.45
1.469,1.01,0.1,-1.69,-1.68,-1.57,0.49
1.472,1.01,0.1,-1.69,-1.71,-1.63,0.52
1.472,0.27,0.85,4.39,-1.71,-1.63,0.52
1.473,0.27,0.85,4.39,-1.76,-1.72,0.55
1.475,0.27,0.85,4.39,-1.85,-1.94,0.62
1.477,0.27,0.85,4.39,-1.95,-2.15,0.69
1.479,0.27,0.85,4.39,-1.95,-2.44,0.76
1.495,0.27,0.85,4.39,-1.97,-3.12,0.88
1.496,0.27,0.85,4.39,-1.93,-6.73,1.94
1.496,0.27,0.85,4.39,-1.93,-6.73,1.94
1.497,0.27,0.85,4.39,-1.94,-6.94,2.1
1.497,0.27,0.85,4.39,-1.95,-7.17,2.22
1.497,0.27,0.85,4.39,-1.95,-7.17,2.22
1.497,0.27,0.85,4.39,-1.95,-7.17,2.22
1.498,0.27,0.85,4.39,-1.96,-7.3,2.29
1.498,17.29,-1.5,6.6,-1.96,-7.3,2.29
1.498,16.38,-1.1,6.76,-1.96,-7.3,2.29
1.499,16.38,-1.1,6.76,-2,-7.14,2.43
1.499,16.38,-1.1,6.76,-2.03,-6.56,2.63
1.503,16.38,-1.1,6.76,-2.01,-6.03,2.68
1.504,16.38,-1.1,6.76,-1.73,-4.48,2.55
1.504,0.3,3.36,-4.59,-1.73,-4.48,2.55
1.505,0.3,3.36,-4.59,-1.35,-3.03,1.72
1.507,0.3,3.36,-4.59,-0.65,-1.62,-0.06
1.509,0.3,3.36,-4.59,-0.19,-0.6,-1.34
1.513,0.3,3.36,-4.59,0.69,1.25,-3.28
1.514,-0.57,1.86,14.05,0.69,1.25,-3.28
1.514,-0.57,1.86,14.05,1.3,2.92,-3.7
1.515,-0.57,1.86,14.05,1.75,4.31,-3.45
1.517,-0.57,1.86,14.05,1.91,4.77,-3.27
1.52,-0.57,1.86,14.05,2.17,5.23,-2.86
1.535,-0.57,1.86,14.05,2.38,5.18,-2.46
1.536,-0.57,1.86,14.05,2.55,3.49,-0.98
1.536,-0.57,1.86,14.05,2.55,3.49,-0.98
1.537,-0.57,1.86,14.05,2.55,3.49,-0.98
1.537,-0.57,1.86,14.05,2.55,3.49,-0.98
1.538,-0.57,1.86,14.05,2.52,3.29,-0.87
1.538,-0.57,1.86,14.05,2.47,3.09,-0.78
1.538,-8.61,-6.23,-0.38,2.47,3.09,-0.78
1.539,-7.85,-6.78,-0.65,2.47,3.09,-0.78
1.54,-7.85,-6.78,-0.65,2.37,2.73,-0.68
1.54,-7.85,-6.78,-0.65,2.25,2.42,-0.65
1.54,-7.85,-6.78,-0.65,2.18,2.31,-0.65
1.542,-7.85,-6.78,-0.65,2.04,2.16,-0.66
1.542,-2.68,-0.79,-4.84,2.04,2.16,-0.66
1.543,-2.68,-0.79,-4.84,1.87,2.13,-0.65
1.545,-2.68,-0.79,-4.84,1.78,2.16,-0.63
1.551,-2.68,-0.79,-4.84,1.6,2.28,-0.61
1.552,-2.68,-0.79,-4.84,1.45,2.46,-0.58
1.556,-2.68,-0.79,-4.84,1.31,2.62,-0.57
1.556,-2.68,-0.79,-4.84,1.25,2.71,-0.58
1.557,-2.68,-0.79,-4.84,1.13,2.87,-0.62
1.557,-1.33,-1.13,-5.2,1.13,2.87,-0.62
1.557,-1.33,-1.13,-5.2,1.01,2.98,-0.69
1.559,-1.33,-1.13,-5.2,0.91,3.06,-0.78
1.576,-1.33,-1.13,-5.2,0.86,3.09,-0.82
1.577,-1.33,-1.13,-5.2,0.83,3.17,-1.14
1.577,-1.33,-1.13,-5.2,0.83,3.17,-1.14
1.58,-1.33,-1.13,-5.2,0.83,3.17,-1.14
1.58,-1.33,-1.13,-5.2,0.86,3.18,-1.17
1.581,-1.33,-1.13,-5.2,0.9,3.2,-1.2
1.581,-1.33,-1.13,-5.2,0.9,3.2,-1.2
1.581,-1.33,-1.13,-5.2,0.95,3.22,-1.24
1.581,-1.71,-0.41,3.92,0.95,3.22,-1.24
1.581,-1.11,-0.59,3.86,0.95,3.22,-1.24
1.582,-0.81,-0.68,3.85,0.95,3.22,-1.24
1.582,-0.81,-0.68,3.85,1.06,3.27,-1.31
1.582,-0.81,-0.68,3.85,1.18,3.32,-1.4
1.582,-0.81,-0.68,3.85,1.29,3.36,-1.51
1.583,-0.36,0.62,6.08,1.29,3.36,-1.51
1.584,-0.36,0.62,6.08,1.34,3.39,-1.56
1.585,-0.36,0.62,6.08,1.46,3.48,-1.67
1.587,-0.36,0.62,6.08,1.56,3.58,-1.77
1.59,-0.36,0.62,6.08,1.62,3.64,-1.82
1.593,-0.36,0.62,6.08,1.73,3.74,-1.92
1.593,0.55,0.62,6.94,1.73,3.74,-1.92
1.594,0.55,0.62,6.94,1.88,3.82,-2.01
1.595,0.55,0.62,6.94,2.03,3.87,-2.11
1.597,0.55,0.62,6.94,2.09,3.89,-2.16
1.599,0.55,0.62,6.94,2.2,3.9,-2.26
1.616,0.55,0.62,6.94,2.28,3.93,-2.35
1.617,0.55,0.62,6.94,2.63,4,-2.59
1.617,0.55,0.62,6.94,2.63,4,-2.59
1.618,0.55,0.62,6.94,2.69,4.1,-2.6
1.618,0.55,0.62,6.94,2.75,4.22,-2.61
1.618,0.55,0.62,6.94,2.75,4.22,-2.61
1.618,0.55,0.62,6.94,2.75,4.22,-2.61
1.619,2.97,-3.99,6.79,2.75,4.22,-2.61
1.619,3.74,-4.43,6.87,2.75,4.22,-2.61
1.619,4.15,-4.65,6.94,2.75,4.22,-2.61
1.619,4.15,-4.65,6.94,2.9,4.51,-2.6
1.62,4.15,-4.65,6.94,3.05,4.8,-2.58
1.62,4.15,-4.65,6.94,3.12,4.94,-2.57
1.623,4.15,-4.65,6.94,3.25,5.18,-2.55
1.623,2.04,-3.19,4.63,3.25,5.18,-2.55
1.623,2.04,-3.19,4.63,3.35,5.37,-2.54
1.626,2.04,-3.19,4.63,3.44,5.5,-2.53
1.626,2.04,-3.19,4.63,3.48,5.54,-2.52
1.629,2.04,-3.19,4.63,3.55,5.61,-2.49
1.632,2.04,-3.19,4.63,3.61,5.62,-2.44
1.632,-0.06,-1.45,2.83,3.61,5.62,-2.44
1.635,-0.06,-1.45,2.83,3.63,5.61,-2.42
1.636,-0.06,-1.45,2.83,3.66,5.56,-2.36
1.637,-0.06,-1.45,2.83,3.68,5.48,-2.3
1.639,-0.06,-1.45,2.83,3.7,5.4,-2.24
1.656,-0.06,-1.45,2.83,3.7,5.36,-2.2
1.657,-0.06,-1.45,2.83,3.45,5.12,-2.19
1.657,-0.06,-1.45,2.83,3.45,5.12,-2.19
1.657,-0.06,-1.45,2.83,3.45,5.12,-2.19
1.658,-0.06,-1.45,2.83,3.39,5.13,-2.24
1.658,-0.06,-1.45,2.83,3.32,5.14,-2.29
1.658,-0.06,-1.45,2.83,3.32,5.14,-2.29
1.659,5.73,-3.47,-4.66,3.32,5.14,-2.29
1.659,6.75,-3.98,-4.23,3.32,5.14,-2.29
1.66,7.23,-4.19,-3.97,3.32,5.14,-2.29
1.66,7.23,-4.19,-3.97,3.25,5.16,-2.35
1.66,7.23,-4.19,-3.97,3.08,5.18,-2.5
1.66,7.23,-4.19,-3.97,2.89,5.18,-2.66
1.662,7.23,-4.19,-3.97,2.68,5.17,-2.83
1.663,7.96,-2.38,-7.61,2.68,5.17,-2.83
1.663,7.96,-2.38,-7.61,2.58,5.16,-2.9
1.67,7.96,-2.38,-7.61,2.37,5.13,-3.05
1.67,7.96,-2.38,-7.61,2.15,5.03,-3.18
1.674,7.96,-2.38,-7.61,1.94,4.95,-3.29
1.674,7.96,-2.38,-7.61,1.84,4.9,-3.34
1.674,5.6,-0.96,-7.13,1.84,4.9,-3.34
1.674,5.6,-0.96,-7.13,1.64,4.81,-3.42
1.675,5.6,-0.96,-7.13,1.45,4.71,-3.5
1.677,5.6,-0.96,-7.13,1.36,4.67,-3.54
1.679,5.6,-0.96,-7.13,1.2,4.61,-3.61
1.695,5.6,-0.96,-7.13,1.04,4.55,-3.67
1.696,5.6,-0.96,-7.13,0.6,4.32,-3.82
1.696,5.6,-0.96,-7.13,0.6,4.32,-3.82
1.696,5.6,-0.96,-7.13,0.6,4.32,-3.82
1.697,5.6,-0.96,-7.13,0.6,4.32,-3.82
1.697,5.6,-0.96,-7.13,0.56,4.28,-3.83
1.697,5.6,-0.96,-7.13,0.53,4.24,-3.84
1.697,0.28,-0.2,-1.35,0.53,4.24,-3.84
1.698,0.71,-0.09,-1.08,0.53,4.24,-3.84
1.698,1.1,0.09,-0.82,0.53,4.24,-3.84
1.698,1.1,0.09,-0.82,0.48,4.13,-3.86
1.698,1.1,0.09,-0.82,0.4,3.94,-3.89
1.7,1.1,0.09,-0.82,0.37,3.83,-3.9
1.704,1.1,0.09,-0.82,0.3,3.58,-3.91
1.705,1.1,0.09,-0.82,0.25,3.31,-3.91
1.705,2.45,-1.62,1.44,0.25,3.31,-3.91
1.705,2.45,-1.62,1.44,0.21,2.94,-3.91
1.707,2.45,-1.62,1.44,0.2,2.74,-3.91
1.709,2.45,-1.62,1.44,0.17,2.33,-3.92
1.712,2.45,-1.62,1.44,0.13,1.9,-3.94
1.712,2.57,-1.49,1.89,0.13,1.9,-3.94
1.713,2.57,-1.49,1.89,0.09,1.46,-3.96
1.715,2.57,-1.49,1.89,0.06,1.23,-3.97
1.718,2.57,-1.49,1.89,0.02,0.79,-3.99
1.719,2.57,-1.49,1.89,-0.03,0.37,-4.01
1.736,2.57,-1.49,1.89,-0.05,0.18,-4.03
1.736,2.57,-1.49,1.89,-0.22,-0.98,-4.2
1.737,2.57,-1.49,1.89,-0.24,-1.06,-4.22
1.74,2.57,-1.49,1.89,-0.25,-1.13,-4.24
1.741,2.57,-1.49,1.89,-0.25,-1.13,-4.24
1.741,2.57,-1.49,1.89,-0.25,-1.13,-4.24
1.741,2.57,-1.49,1.89,-0.25,-1.13,-4.24
1.741,2.57,-1.49,1.89,-0.25,-1.29,-4.25
1.742,3.07,-1.59,0.18,-0.25,-1.29,-4.25
1.742,3.11,-1.31,0.19,-0.25,-1.29,-4.25
1.742,3.06,-1,0.12,-0.25,-1.29,-4.25
1.742,3.06,-1,0.12,-0.24,-1.37,-4.24
1.743,3.06,-1,0.12,-0.2,-1.54,-4.24
1.743,3.06,-1,0.12,-0.18,-1.72,-4.25
1.743,4.28,-0.94,-0.51,-0.18,-1.72,-4.25
1.743,4.28,-0.94,-0.51,-0.15,-1.89,-4.26
1.745,4.28,-0.94,-0.51,-0.13,-1.97,-4.26
1.746,4.28,-0.94,-0.51,-0.1,-2.13,-4.27
1.751,4.28,-0.94,-0.51,-0.06,-2.29,-4.27
1.752,4.28,-0.94,-0.51,-0.04,-2.37,-4.27
1.752,4.15,-0.64,-0.17,-0.04,-2.37,-4.27
1.752,4.15,-0.64,-0.17,0,-2.54,-4.26
1.758,4.15,-0.64,-0.17,0.06,-2.72,-4.24
1.758,4.15,-0.64,-0.17,0.11,-2.9,-4.22
1.76,4.15,-0.64,-0.17,0.14,-2.99,-4.21
1.773,4.15,-0.64,-0.17,0.2,-3.15,-4.17
1.774,4.15,-0.64,-0.17,0.45,-3.73,-3.94
1.774,4.15,-0.64,-0.17,0.45,-3.73,-3.94
1.774,4.15,-0.64,-0.17,0.45,-3.73,-3.94
1.774,4.15,-0.64,-0.17,0.45,-3.73,-3.94
1.774,4.15,-0.64,-0.17,0.48,-3.79,-3.91
1.775,2.55,0.07,0.8,0.48,-3.79,-3.91
1.775,1.99,0.53,0.36,0.48,-3.79,-3.91
1.775,1.99,0.53,0.36,0.51,-3.84,-3.87
1.775,1.99,0.53,0.36,0.58,-3.91,-3.8
1.777,1.99,0.53,0.36,0.66,-3.94,-3.72
1.779,1.99,0.53,0.36,0.75,-3.93,-3.63
1.782,1.99,0.53,0.36,0.8,-3.91,-3.58
1.783,-2.09,1.69,1.67,0.8,-3.91,-3.58
1.784,-2.09,1.69,1.67,0.89,-3.81,-3.46
1.785,-2.09,1.69,1.67,1.01,-3.67,-3.33
1.786,-2.09,1.69,1.67,1.14,-3.5,-3.26
1.789,-2.09,1.69,1.67,1.21,-3.4,-3.11
1.792,-2.09,1.69,1.67,1.36,-3.18,-2.95
1.792,-7.37,3.11,3.84,1.36,-3.18,-2.95
1.792,-7.37,3.11,3.84,1.53,-2.92,-2.78
1.795,-7.37,3.11,3.84,1.62,-2.77,-2.69
1.797,-7.37,3.11,3.84,1.8,-2.47,-2.52
1.799,-7.37,3.11,3.84,1.99,-2.14,-2.35
1.814,-7.37,3.11,3.84,2.18,-1.8,-2.2
1.815,-7.37,3.11,3.84,2.98,-0.47,-1.78
1.815,-7.37,3.11,3.84,2.98,-0.47,-1.78
1.815,-7.37,3.11,3.84,2.98,-0.47,-1.78
1.815,-7.37,3.11,3.84,3.08,-0.31,-1.75
1.815,-7.37,3.11,3.84,3.17,-0.16,-1.72
1.816,-7.37,3.11,3.84,3.17,-0.16,-1.72
1.816,-1.79,1.32,3.46,3.17,-0.16,-1.72
1.816,-1.97,1.25,3.34,3.17,-0.16,-1.72
1.816,-2.03,1.08,3.29,3.17,-0.16,-1.72
1.816,-2.03,1.08,3.29,3.35,0.14,-1.67
1.817,-2.03,1.08,3.29,3.43,0.27,-1.63
1.819,-2.03,1.08,3.29,3.59,0.52,-1.58
1.822,-2.03,1.08,3.29,3.71,0.76,-1.51
1.822,-0.19,0.25,1.28,3.71,0.76,-1.51
1.822,-0.19,0.25,1.28,3.81,1.02,-1.43
1.825,-0.19,0.25,1.28,3.85,1.15,-1.4
1.827,-0.19,0.25,1.28,3.91,1.39,-1.33
1.829,-0.19,0.25,1.28,3.96,1.59,-1.28
1.832,-0.19,0.25,1.28,4,1.74,-1.23
1.832,1.14,-1.07,-1.84,4,1.74,-1.23
1.833,1.14,-1.07,-1.84,4.02,1.79,-1.22
1.835,1.14,-1.07,-1.84,4.04,1.83,-1.2
1.837,1.14,-1.07,-1.84,4.05,1.81,-1.2
1.839,1.14,-1.07,-1.84,4.06,1.77,-1.21
1.855,1.14,-1.07,-1.84,4.05,1.64,-1.24
1.856,1.14,-1.07,-1.84,3.75,0.39,-1.62
1.856,1.14,-1.07,-1.84,3.75,0.39,-1.62
1.856,1.14,-1.07,-1.84,3.69,0.22,-1.67
1.857,1.14,-1.07,-1.84,3.63,0.05,-1.72
1.857,1.14,-1.07,-1.84,3.63,0.05,-1.72
1.857,1.14,-1.07,-1.84,3.63,0.05,-1.72
1.857,2.02,-3.08,-3.22,3.63,0.05,-1.72
1.857,2.2,-3.59,-3.11,3.63,0.05,-1.72
1.857,2.2,-3.59,-3.11,3.56,-0.11,-1.78
1.857,2.2,-3.59,-3.11,3.43,-0.45,-1.87
1.859,2.2,-3.59,-3.11,3.3,-0.78,-1.95
1.862,2.2,-3.59,-3.11,3.24,-0.93,-1.98
1.863,0.27,-1.99,-2.67,3.24,-0.93,-1.98
1.863,0.27,-1.99,-2.67,3.12,-1.23,-2.03
1.865,0.27,-1.99,-2.67,3,-1.49,-2.06
1.866,0.27,-1.99,-2.67,2.89,-1.71,-2.07
1.869,0.27,-1.99,-2.67,2.84,-1.81,-2.06
1.872,0.27,-1.99,-2.67,2.74,-1.99,-1.99
1.872,-2.4,-0.69,-2.56,2.74,-1.99,-1.99
1.873,-2.4,-0.69,-2.56,2.64,-2.13,-1.9
1.875,-2.4,-0.69,-2.56,2.53,-2.22,-1.81
1.876,-2.4,-0.69,-2.56,2.48,-2.25,-1.75
1.879,-2.4,-0.69,-2.56,2.37,-2.31,-1.64
1.891,-2.4,-0.69,-2.56,2.28,-2.38,-1.51
1.892,-2.4,-0.69,-2.56,1.98,-2.83,-0.91
1.892,-2.4,-0.69,-2.56,1.98,-2.83,-0.91
1.892,-2.4,-0.69,-2.56,1.98,-2.83,-0.91
1.892,-2.4,-0.69,-2.56,1.98,-2.83,-0.91
1.895,-4.38,1.59,-0.93,1.98,-2.83,-0.91
1.896,-4.57,1.48,-1.02,1.98,-2.83,-0.91
1.896,-4.57,1.48,-1.02,1.98,-2.83,-0.91
1.896,-4.57,1.48,-1.02,1.93,-2.99,-0.77
1.896,-4.57,1.48,-1.02,1.9,-3.16,-0.63
1.897,-4.57,1.48,-1.02,1.87,-3.34,-0.52
1.899,-4.57,1.48,-1.02,1.86,-3.42,-0.47
1.902,-4.57,1.48,-1.02,1.83,-3.6,-0.38
1.902,-1.8,1.63,-0.03,1.83,-3.6,-0.38
1.903,-1.8,1.63,-0.03,1.8,-3.74,-0.31
1.905,-1.8,1.63,-0.03,1.78,-3.8,-0.29
1.907,-1.8,1.63,-0.03,1.75,-3.91,-0.25
1.909,-1.8,1.63,-0.03,1.71,-3.99,-0.23
1.912,-1.8,1.63,-0.03,1.65,-3.97,-0.22
1.912,-1.07,-0.51,-0.41,1.65,-3.97,-0.22
1.913,-1.07,-0.51,-0.41,1.61,-3.89,-0.22
1.915,-1.07,-0.51,-0.41,1.55,-3.69,-0.22
1.917,-1.07,-0.51,-0.41,1.49,-3.33,-0.21
1.919,-1.07,-0.51,-0.41,1.43,-2.89,-0.2
1.936,-1.07,-0.51,-0.41,1.4,-2.67,-0.19
1.936,-1.07,-0.51,-0.41,1.36,-2.32,-0.15
1.936,-1.07,-0.51,-0.41,1.37,-2.37,-0.14
1.936,-1.07,-0.51,-0.41,1.37,-2.37,-0.14
1.936,-1.07,-0.51,-0.41,1.37,-2.37,-0.14
1.937,-1.07,-0.51,-0.41,1.39,-2.43,-0.13
1.937,-1.07,-0.51,-0.41,1.41,-2.5,-0.12
1.937,-1.07,-0.51,-0.41,1.44,-2.56,-0.11
1.937,-0.19,-4.01,1.08,1.44,-2.56,-0.11
1.937,-0.63,-4.25,0.94,1.44,-2.56,-0.11
1.938,-0.85,-4.37,0.88,1.44,-2.56,-0.11
1.938,-0.85,-4.37,0.88,1.49,-2.65,-0.09
1.939,-0.85,-4.37,0.88,1.56,-2.68,-0.07
1.942,-0.85,-4.37,0.88,1.62,-2.65,-0.05
1.942,-0.54,-4.2,2.07,1.62,-2.65,-0.05
1.942,-0.54,-4.2,2.07,1.66,-2.61,-0.05
1.944,-0.54,-4.2,2.07,1.74,-2.51,-0.04
1.947,-0.54,-4.2,2.07,1.81,-2.39,-0.03
1.951,-0.54,-4.2,2.07,1.86,-2.34,-0.03
1.952,-0.54,-4.2,2.07,1.95,-2.25,-0.02
1.952,0.49,-3.02,3.03,1.95,-2.25,-0.02
1.953,0.49,-3.02,3.03,2.05,-2.17,-0.01
1.956,0.49,-3.02,3.03,2.15,-2.1,0.02
1.957,0.49,-3.02,3.03,2.19,-2.06,0.03
1.959,0.49,-3.02,3.03,2.29,-1.98,0.07
1.975,0.49,-3.02,3.03,2.39,-1.87,0.1
1.975,0.49,-3.02,3.03,2.75,-1.44,0.24
1.975,0.49,-3.02,3.03,2.8,-1.38,0.25
1.976,0.49,-3.02,3.03,2.84,-1.32,0.26
1.976,0.49,-3.02,3.03,2.84,-1.32,0.26
1.976,0.49,-3.02,3.03,2.84,-1.32,0.26
1.976,0.49,-3.02,3.03,2.84,-1.32,0.26
1.976,0.49,-3.02,3.03,2.92,-1.19,0.28
1.977,1.45,-0.64,1.34,2.92,-1.19,0.28
1.977,1.28,-0.86,1.34,2.92,-1.19,0.28
1.977,1.14,-1.12,1.37,2.92,-1.19,0.28
1.977,1.14,-1.12,1.37,3,-1.07,0.3
1.979,1.14,-1.12,1.37,3.04,-1.03,0.32
1.982,1.14,-1.12,1.37,3.12,-0.95,0.35
1.983,1.14,-1.12,1.37,3.21,-0.92,0.38
1.983,1.51,-2.09,1.1,3.21,-0.92,0.38
1.985,1.51,-2.09,1.1,3.3,-0.95,0.43
1.987,1.51,-2.09,1.1,3.35,-0.98,0.45
1.989,1.51,-2.09,1.1,3.45,-1.09,0.5
1.992,1.51,-2.09,1.1,3.55,-1.24,0.54
1.992,1.86,-3.2,0.98,3.55,-1.24,0.54
1.993,1.86,-3.2,0.98,3.6,-1.34,0.56
1.995,1.86,-3.2,0.98,3.69,-1.55,0.59
1.997,1.86,-3.2,0.98,3.78,-1.79,0.6
1.998,1.86,-3.2,0.98,3.85,-2.03,0.59
2.015,1.86,-3.2,0.98,3.88,-2.14,0.58
2.015,1.86,-3.2,0.98,3.86,-2.77,0.1
2.015,1.86,-3.2,0.98,3.83,-2.85,0.01
2.016,1.86,-3.2,0.98,3.83,-2.85,0.01
2.016,1.86,-3.2,0.98,3.83,-2.85,0.01
2.016,1.86,-3.2,0.98,3.81,-2.96,-0.08
2.016,1.86,-3.2,0.98,3.78,-3.07,-0.17
2.016,1.86,-3.2,0.98,3.76,-3.2,-0.25
2.017,-0.23,-1.59,0.85,3.76,-3.2,-0.25
2.017,-0.44,-1.94,0.94,3.76,-3.2,-0.25
2.017,-0.7,-2.27,1.04,3.76,-3.2,-0.25
2.018,-0.7,-2.27,1.04,3.72,-3.46,-0.42
2.019,-0.7,-2.27,1.04,3.67,-3.7,-0.57
2.022,-0.7,-2.27,1.04,3.63,-3.91,-0.71
2.022,0.83,-1.46,-0.55,3.63,-3.91,-0.71
2.022,0.83,-1.46,-0.55,3.6,-4,-0.78
2.025,0.83,-1.46,-0.55,3.54,-4.16,-0.91
2.027,0.83,-1.46,-0.55,3.47,-4.28,-1.03
2.028,0.83,-1.46,-0.55,3.39,-4.4,-1.14
2.032,0.83,-1.46,-0.55,3.35,-4.45,-1.19
2.032,1.38,-1.92,-1.69,3.35,-4.45,-1.19
2.033,1.38,-1.92,-1.69,3.28,-4.58,-1.27
2.035,1.38,-1.92,-1.69,3.22,-4.69,-1.32
2.037,1.38,-1.92,-1.69,3.19,-4.75,-1.34
2.039,1.38,-1.92,-1.69,3.14,-4.83,-1.36
2.054,1.38,-1.92,-1.69,3.09,-4.89,-1.35
2.055,1.38,-1.92,-1.69,2.76,-4.61,-1.18
2.055,1.38,-1.92,-1.69,2.76,-4.61,-1.18
2.055,1.38,-1.92,-1.69,2.76,-4.61,-1.18
2.056,1.38,-1.92,-1.69,2.7,-4.52,-1.15
2.056,1.38,-1.92,-1.69,2.63,-4.43,-1.13
2.059,1.38,-1.92,-1.69,2.63,-4.43,-1.13
2.06,0.62,-2.37,-4.41,2.63,-4.43,-1.13
2.06,-0.06,-2.85,-4.19,2.63,-4.43,-1.13
2.06,-0.06,-2.85,-4.19,2.47,-4.19,-1.07
2.061,-0.06,-2.85,-4.19,2.29,-3.9,-1.01
2.061,-0.06,-2.85,-4.19,2.2,-3.73,-0.99
2.062,-0.06,-2.85,-4.19,2,-3.37,-0.93
2.062,-1.68,-1.98,-5.09,2,-3.37,-0.93
2.063,-1.68,-1.98,-5.09,1.8,-2.97,-0.88
2.065,-1.68,-1.98,-5.09,1.6,-2.54,-0.82
2.067,-1.68,-1.98,-5.09,1.5,-2.33,-0.8
2.069,-1.68,-1.98,-5.09,1.3,-1.91,-0.74
2.072,-1.68,-1.98,-5.09,1.11,-1.49,-0.69
2.072,-3.68,-0.54,-3.83,1.11,-1.49,-0.69
2.072,-3.68,-0.54,-3.83,0.92,-1.1,-0.62
2.074,-3.68,-0.54,-3.83,0.84,-0.91,-0.59
2.077,-3.68,-0.54,-3.83,0.68,-0.57,-0.52
2.079,-3.68,-0.54,-3.83,0.55,-0.26,-0.44
2.095,-3.68,-0.54,-3.83,0.49,-0.1,-0.39
2.096,-3.68,-0.54,-3.83,0.31,0.45,0.61
2.096,-3.68,-0.54,-3.83,0.32,0.46,0.75
2.096,-3.68,-0.54,-3.83,0.34,0.49,0.89
2.097,-3.68,-0.54,-3.83,0.34,0.49,0.89
2.097,-3.68,-0.54,-3.83,0.34,0.49,0.89
2.097,-3.68,-0.54,-3.83,0.34,0.49,0.89
2.097,-3.68,-0.54,-3.83,0.39,0.58,1.14
2.097,-12.95,4.38,2.43,0.39,0.58,1.14
2.098,-12.94,4.34,2.45,0.39,0.58,1.14
2.098,-12.93,4.31,2.47,0.39,0.58,1.14
2.099,-12.93,4.31,2.47,0.41,0.66,1.25
2.099,-12.93,4.31,2.47,0.44,0.82,1.4
2.103,-12.93,4.31,2.47,0.45,0.99,1.48
2.103,-12.93,4.31,2.47,0.45,1.06,1.5
2.104,-2.61,1.62,-0.29,0.45,1.06,1.5
2.105,-2.61,1.62,-0.29,0.42,1.19,1.52
2.107,-2.61,1.62,-0.29,0.37,1.32,1.53
2.109,-2.61,1.62,-0.29,0.32,1.43,1.55
2.112,-2.61,1.62,-0.29,0.29,1.48,1.56
2.112,0.65,0.27,-2.65,0.29,1.48,1.56
2.112,0.65,0.27,-2.65,0.25,1.55,1.6
2.115,0.65,0.27,-2.65,0.22,1.6,1.63
2.117,0.65,0.27,-2.65,0.21,1.61,1.67
2.119,0.65,0.27,-2.65,0.21,1.61,1.68
2.134,0.65,0.27,-2.65,0.22,1.59,1.72
2.134,0.65,0.27,-2.65,0.41,1.52,1.84
2.134,0.65,0.27,-2.65,0.41,1.52,1.84
2.134,0.65,0.27,-2.65,0.41,1.52,1.84
2.135,0.65,0.27,-2.65,0.41,1.52,1.84
2.135,0.65,0.27,-2.65,0.43,1.55,1.86
2.135,0.65,0.27,-2.65,0.47,1.59,1.89
2.135,-0.99,1.2,0.17,0.47,1.59,1.89
2.135,-0.94,1.15,0.21,0.47,1.59,1.89
2.136,-0.94,1.15,0.21,0.53,1.66,1.93
2.137,-0.94,1.15,0.21,0.6,1.73,1.97
2.139,-0.94,1.15,0.21,0.67,1.77,2.01
2.142,-0.94,1.15,0.21,0.71,1.79,2.02
2.142,-0.58,0.46,0.09,0.71,1.79,2.02
2.143,-0.58,0.46,0.09,0.78,1.83,2.05
2.144,-0.58,0.46,0.09,0.86,1.87,2.07
2.146,-0.58,0.46,0.09,0.9,1.89,2.07
2.152,-0.58,0.46,0.09,0.98,1.92,2.06
2.152,-0.58,0.46,0.09,1.05,1.97,2.04
2.152,0.19,0.68,-0.19,1.05,1.97,2.04
2.153,0.19,0.68,-0.19,1.13,2,2
2.155,0.19,0.68,-0.19,1.16,2.01,1.98
2.157,0.19,0.68,-0.19,1.23,2.03,1.92
2.159,0.19,0.68,-0.19,1.3,2.03,1.84
2.175,0.19,0.68,-0.19,1.35,2.01,1.76
2.175,0.19,0.68,-0.19,1.48,1.69,1.42
2.176,0.19,0.68,-0.19,1.48,1.69,1.42
2.176,0.19,0.68,-0.19,1.48,1.69,1.42
2.176,0.19,0.68,-0.19,1.49,1.65,1.38
2.176,0.19,0.68,-0.19,1.49,1.61,1.36
2.176,0.19,0.68,-0.19,1.49,1.61,1.36
2.176,0.34,2.51,-1.43,1.49,1.61,1.36
2.177,0.45,2.28,-1.25,1.49,1.61,1.36
2.177,0.45,2.28,-1.25,1.47,1.57,1.31
2.177,0.45,2.28,-1.25,1.46,1.57,1.29
2.178,0.45,2.28,-1.25,1.42,1.6,1.27
2.182,0.45,2.28,-1.25,1.37,1.62,1.25
2.182,0.73,1.96,-0.48,1.37,1.62,1.25
2.183,0.73,1.96,-0.48,1.34,1.57,1.23
2.184,0.73,1.96,-0.48,1.32,1.51,1.2
2.187,0.73,1.96,-0.48,1.3,1.33,1.14
2.189,0.73,1.96,-0.48,1.3,1.11,1.07
2.192,0.73,1.96,-0.48,1.31,0.99,1.04
2.192,1.42,0.5,0.59,1.31,0.99,1.04
2.193,1.42,0.5,0.59,1.33,0.77,0.99
2.194,1.42,0.5,0.59,1.37,0.58,0.94
2.196,1.42,0.5,0.59,1.42,0.44,0.91
2.199,1.42,0.5,0.59,1.45,0.39,0.9
2.213,1.42,0.5,0.59,1.5,0.33,0.88
2.214,1.42,0.5,0.59,1.71,0.5,0.88
2.214,1.42,0.5,0.59,1.71,0.5,0.88
2.214,1.42,0.5,0.59,1.73,0.54,0.89
2.214,1.42,0.5,0.59,1.73,0.54,0.89
2.214,1.42,0.5,0.59,1.74,0.57,0.9
2.215,1.42,0.5,0.59,1.74,0.57,0.9
2.215,-0.05,-0.34,0.08,1.74,0.57,0.9
2.215,-0.11,-0.58,0.29,1.74,0.57,0.9
2.218,-0.13,-0.71,0.4,1.74,0.57,0.9
2.218,-0.13,-0.71,0.4,1.75,0.6,0.91
2.219,-0.13,-0.71,0.4,1.78,0.64,0.94
2.219,-0.13,-0.71,0.4,1.8,0.68,0.96
2.223,-0.13,-0.71,0.4,1.81,0.69,0.97
2.224,-0.13,-0.71,0.4,1.83,0.71,0.99
2.224,-0.39,0.22,-0.09,1.83,0.71,0.99
2.225,-0.39,0.22,-0.09,1.85,0.72,1.01
2.227,-0.39,0.22,-0.09,1.87,0.73,1.03
2.229,-0.39,0.22,-0.09,1.88,0.73,1.04
2.234,-0.39,0.22,-0.09,1.9,0.73,1.05
2.234,-0.39,0.22,-0.09,1.91,0.72,1.05
2.235,-0.14,0.64,-0.49,1.91,0.72,1.05
2.235,-0.14,0.64,-0.49,1.91,0.71,1.05
2.236,-0.14,0.64,-0.49,1.92,0.68,1.04
2.238,-0.14,0.64,-0.49,1.92,0.64,1.02
2.254,-0.14,0.64,-0.49,1.92,0.6,1
2.254,-0.14,0.64,-0.49,1.85,0.29,0.87
2.254,-0.14,0.64,-0.49,1.85,0.29,0.87
2.254,-0.14,0.64,-0.49,1.85,0.29,0.87
2.255,-0.14,0.64,-0.49,1.85,0.29,0.87
2.255,-0.14,0.64,-0.49,1.84,0.24,0.85
2.255,-0.14,0.64,-0.49,1.83,0.2,0.83
2.255,0.41,0.06,-0.72,1.83,0.2,0.83
2.255,0.34,-0.2,-0.46,1.83,0.2,0.83
2.256,0.34,-0.2,-0.46,1.8,0.11,0.8
2.257,0.34,-0.2,-0.46,1.79,0.07,0.78
2.259,0.34,-0.2,-0.46,1.76,0.01,0.76
2.262,0.34,-0.2,-0.46,1.72,-0.05,0.74
2.262,0.14,-0.19,-0.51,1.72,-0.05,0.74
2.262,0.14,-0.19,-0.51,1.68,-0.09,0.72
2.267,0.14,-0.19,-0.51,1.66,-0.11,0.72
2.267,0.14,-0.19,-0.51,1.62,-0.12,0.71
2.269,0.14,-0.19,-0.51,1.57,-0.13,0.71
2.272,0.14,-0.19,-0.51,1.52,-0.13,0.71
2.272,-0.07,-0.24,-1.49,1.52,-0.13,0.71
2.273,-0.07,-0.24,-1.49,1.49,-0.13,0.71
2.275,-0.07,-0.24,-1.49,1.43,-0.14,0.71
2.277,-0.07,-0.24,-1.49,1.37,-0.14,0.71
2.279,-0.07,-0.24,-1.49,1.33,-0.14,0.71
2.294,-0.07,-0.24,-1.49,1.26,-0.13,0.71
2.294,-0.07,-0.24,-1.49,0.97,-0.03,0.68
2.295,-0.07,-0.24,-1.49,0.93,-0.02,0.67
2.295,-0.07,-0.24,-1.49,0.93,-0.02,0.67
2.295,-0.07,-0.24,-1.49,0.93,-0.02,0.67
2.295,-0.07,-0.24,-1.49,0.89,-0.01,0.67
2.295,-0.07,-0.24,-1.49,0.86,0,0.66
2.296,0.42,0.02,-2.94,0.86,0,0.66
2.296,0.31,-0.12,-2.77,0.86,0,0.66
2.296,0.25,-0.17,-2.7,0.86,0,0.66
2.296,0.25,-0.17,-2.7,0.83,0.02,0.65
2.296,0.25,-0.17,-2.7,0.77,0.04,0.63
2.299,0.25,-0.17,-2.7,0.71,0.07,0.61
2.302,0.25,-0.17,-2.7,0.68,0.08,0.6
2.302,0.8,0.33,-2.36,0.68,0.08,0.6
2.303,0.8,0.33,-2.36,0.63,0.1,0.57
2.305,0.8,0.33,-2.36,0.58,0.12,0.56
2.306,0.8,0.33,-2.36,0.53,0.14,0.53
2.308,0.8,0.33,-2.36,0.51,0.15,0.52
2.312,0.8,0.33,-2.36,0.47,0.16,0.51
2.312,0.58,0.45,-1.95,0.47,0.16,0.51
2.313,0.58,0.45,-1.95,0.43,0.17,0.49
2.315,0.58,0.45,-1.95,0.4,0.18,0.48
2.317,0.58,0.45,-1.95,0.38,0.18,0.47
2.318,0.58,0.45,-1.95,0.34,0.18,0.46
2.334,0.58,0.45,-1.95,0.31,0.16,0.45
2.335,0.58,0.45,-1.95,0.19,0.05,0.46
2.335,0.58,0.45,-1.95,0.18,0.03,0.47
2.335,0.58,0.45,-1.95,0.17,0.01,0.47
2.335,0.58,0.45,-1.95,0.17,0.01,0.47
2.336,0.58,0.45,-1.95,0.17,0.01,0.47
2.336,0.58,0.45,-1.95,0.16,-0.02,0.48
2.336,0.58,0.45,-1.95,0.15,-0.04,0.48
2.336,-0.54,0,-1.69,0.15,-0.04,0.48
2.336,-0.56,-0.02,-1.66,0.15,-0.04,0.48
2.336,-0.6,-0.03,-1.65,0.15,-0.04,0.48
2.337,-0.6,-0.03,-1.65,0.12,-0.09,0.49
2.339,-0.6,-0.03,-1.65,0.12,-0.12,0.49
2.342,-0.6,-0.03,-1.65,0.1,-0.18,0.5
2.343,-0.6,-0.24,-0.99,0.1,-0.18,0.5
2.343,-0.6,-0.24,-0.99,0.09,-0.23,0.5
2.345,-0.6,-0.24,-0.99,0.09,-0.27,0.5
2.347,-0.6,-0.24,-0.99,0.08,-0.32,0.49
2.352,-0.6,-0.24,-0.99,0.08,-0.38,0.49
2.352,-0.6,-0.24,-0.99,0.09,-0.44,0.48
2.353,-0.06,-0.18,0.08,0.09,-0.44,0.48
2.353,-0.06,-0.18,0.08,0.09,-0.47,0.48
2.355,-0.06,-0.18,0.08,0.11,-0.51,0.46
2.357,-0.06,-0.18,0.08,0.12,-0.56,0.45
2.359,-0.06,-0.18,0.08,0.14,-0.59,0.44
2.374,-0.06,-0.18,0.08,0.16,-0.6,0.44
2.374,-0.06,-0.18,0.08,0.27,-0.63,0.38
2.374,-0.06,-0.18,0.08,0.27,-0.63,0.38
2.374,-0.06,-0.18,0.08,0.29,-0.62,0.37
2.375,-0.06,-0.18,0.08,0.29,-0.62,0.37
2.375,-0.06,-0.18,0.08,0.3,-0.62,0.37
2.375,-0.12,-0.18,0.09,0.3,-0.62,0.37
2.375,-0.25,-0.21,0.13,0.3,-0.62,0.37
2.376,-0.25,-0.21,0.13,0.31,-0.62,0.36
2.376,-0.25,-0.21,0.13,0.33,-0.61,0.35
2.379,-0.25,-0.21,0.13,0.35,-0.6,0.35
2.379,-0.25,-0.21,0.13,0.37,-0.59,0.34
2.382,-0.25,-0.21,0.13,0.39,-0.59,0.33
2.382,0.36,-0.37,0.93,0.39,-0.59,0.33
2.383,0.36,-0.37,0.93,0.39,-0.58,0.33
2.385,0.36,-0.37,0.93,0.4,-0.57,0.33
2.387,0.36,-0.37,0.93,0.4,-0.56,0.33
2.389,0.36,-0.37,0.93,0.4,-0.55,0.33
2.392,0.36,-0.37,0.93,0.38,-0.54,0.32
2.392,0.09,-0.17,-0.13,0.38,-0.54,0.32
2.392,0.09,-0.17,-0.13,0.37,-0.52,0.32
2.395,0.09,-0.17,-0.13,0.34,-0.51,0.32
2.397,0.09,-0.17,-0.13,0.32,-0.5,0.32
2.399,0.09,-0.17,-0.13,0.28,-0.49,0.32
2.414,0.09,-0.17,-0.13,0.24,-0.47,0.31
2.415,0.09,-0.17,-0.13,0.05,-0.42,0.28
2.415,0.09,-0.17,-0.13,0.05,-0.42,0.28
2.415,0.09,-0.17,-0.13,0.05,-0.42,0.28
2.416,0.09,-0.17,-0.13,0.03,-0.41,0.28
2.416,0.09,-0.17,-0.13,0,-0.4,0.28
2.416,0.09,-0.17,-0.13,0,-0.4,0.28
2.416,0.04,-0.19,-0.1,0,-0.4,0.28
2.417,-0.01,-0.2,-0.08,0,-0.4,0.28
2.417,-0.06,-0.21,-0.07,0,-0.4,0.28
2.417,-0.06,-0.21,-0.07,-0.05,-0.38,0.27
2.42,-0.06,-0.21,-0.07,-0.1,-0.37,0.26
2.421,-0.06,-0.21,-0.07,-0.12,-0.36,0.25
2.423,-0.06,-0.21,-0.07,-0.16,-0.34,0.24
2.423,-0.06,-0.21,-0.07,-0.2,-0.32,0.23
2.424,0.14,-0.18,-0.88,-0.2,-0.32,0.23
2.425,0.14,-0.18,-0.88,-0.24,-0.31,0.22
2.427,0.14,-0.18,-0.88,-0.25,-0.3,0.22
2.429,0.14,-0.18,-0.88,-0.28,-0.27,0.21
2.432,0.14,-0.18,-0.88,-0.3,-0.25,0.2
2.433,0.35,-0.32,0.07,-0.3,-0.25,0.2
2.434,0.35,-0.32,0.07,-0.31,-0.23,0.19
2.435,0.35,-0.32,0.07,-0.32,-0.2,0.19
2.437,0.35,-0.32,0.07,-0.32,-0.16,0.18
2.439,0.35,-0.32,0.07,-0.32,-0.13,0.17
2.456,0.35,-0.32,0.07,-0.32,-0.11,0.17
2.456,0.35,-0.32,0.07,-0.25,0.03,0.13
2.456,0.35,-0.32,0.07,-0.24,0.04,0.13
2.457,0.35,-0.32,0.07,-0.23,0.05,0.12
2.457,0.35,-0.32,0.07,-0.23,0.05,0.12
2.457,0.35,-0.32,0.07,-0.23,0.05,0.12
2.457,0.35,-0.32,0.07,-0.23,0.05,0.12
2.458,0.35,-0.32,0.07,-0.22,0.07,0.12
2.458,0.47,-0.72,1.85,-0.22,0.07,0.12
2.458,0.44,-0.69,1.8,-0.22,0.07,0.12
2.458,0.43,-0.67,1.78,-0.22,0.07,0.12
2.459,0.43,-0.67,1.78,-0.2,0.09,0.12
2.46,0.43,-0.67,1.78,-0.17,0.12,0.12
2.463,0.43,-0.67,1.78,-0.17,0.12,0.12
2.463,0.43,-0.67,1.78,-0.14,0.14,0.12
2.463,0.43,-0.67,1.78,-0.13,0.15,0.12
2.471,0.43,-0.67,1.78,-0.11,0.16,0.12
2.472,0.43,-0.67,1.78,-0.09,0.17,0.13
2.472,0.43,-0.67,1.78,-0.07,0.17,0.13
2.473,0.43,-0.67,1.78,-0.06,0.17,0.13
2.473,-0.11,-0.61,1.37,-0.06,0.17,0.13
2.473,-0.11,-0.61,1.37,-0.04,0.16,0.14
2.478,-0.11,-0.61,1.37,-0.03,0.16,0.14
2.478,-0.11,-0.61,1.37,-0.02,0.15,0.15
2.48,-0.11,-0.61,1.37,-0.01,0.14,0.15
2.495,-0.11,-0.61,1.37,0,0.13,0.16
2.496,-0.11,-0.61,1.37,-0.02,0.1,0.17
2.496,-0.11,-0.61,1.37,-0.02,0.1,0.17
2.496,-0.11,-0.61,1.37,-0.02,0.1,0.17
2.497,-0.11,-0.61,1.37,-0.02,0.1,0.17
2.497,-0.11,-0.61,1.37,-0.03,0.09,0.17
2.497,-0.11,-0.61,1.37,-0.04,0.09,0.17
2.497,-0.33,-0.37,0.24,-0.04,0.09,0.17
2.497,-0.34,-0.36,0.23,-0.04,0.09,0.17
2.498,-0.34,-0.36,0.23,-0.05,0.08,0.17
2.498,-0.34,-0.36,0.23,-0.07,0.07,0.17
2.499,-0.34,-0.36,0.23,-0.07,0.07,0.18
2.504,-0.34,-0.36,0.23,-0.09,0.06,0.18
2.504,-0.34,-0.36,0.23,-0.1,0.05,0.18
2.505,-0.39,-0.45,0.23,-0.1,0.05,0.18
2.506,-0.39,-0.45,0.23,-0.11,0.04,0.18
2.506,-0.39,-0.45,0.23,-0.11,0.04,0.18
2.509,-0.39,-0.45,0.23,-0.11,0.03,0.18
2.511,-0.39,-0.45,0.23,-0.12,0.02,0.19
2.512,-0.27,-0.48,0.7,-0.12,0.02,0.19
2.512,-0.27,-0.48,0.7,-0.11,0.01,0.19
2.516,-0.27,-0.48,0.7,-0.11,0.01,0.19
2.517,-0.27,-0.48,0.7,-0.1,0,0.18
2.519,-0.27,-0.48,0.7,-0.08,0,0.18
2.536,-0.27,-0.48,0.7,-0.07,0,0.17
2.537,-0.27,-0.48,0.7,0.02,0.04,0.18
2.537,-0.27,-0.48,0.7,0.02,0.04,0.18
2.537,-0.27,-0.48,0.7,0.02,0.04,0.18
