time,ax,ay,az,wx,wy,wz
0.001,0.05,-0.04,0.21,0,0,0
0.002,0.05,-0.04,0.21,0,0,0
0.002,0.05,-0.04,0.21,0,0.01,0
0.002,0.05,-0.04,0.21,0.01,0.01,0
0.002,0.03,0.02,0.23,0.01,0.01,0
0.004,0.03,0.02,0.23,0.01,0.02,0
0.005,0.03,0.02,0.23,0.01,0.02,0
0.009,0.03,0.02,0.23,0.01,0.03,0
0.023,0.03,0.02,0.23,0.02,0.03,0
0.023,0.03,0.02,0.23,0.02,0.03,0
0.024,0.03,0.02,0.23,0.02,0.03,0
0.024,0.03,0.02,0.23,0.02,0.03,0
0.024,0.03,0.02,0.23,0.01,0.03,0
0.024,0.03,0.02,0.23,0.02,0.03,0
0.024,0.03,0.02,0.23,0.02,0.03,0
0.024,0,0.05,0.19,0.02,0.03,0
0.025,0.01,0.05,0.19,0.02,0.03,0
0.025,0.01,0.05,0.19,0.01,0.03,0
0.032,0.01,0.05,0.19,0.01,0.03,0
0.032,0.01,0.05,0.19,0.01,0.03,0
0.033,0.01,0.05,0.19,0.01,0.03,0
0.033,-0.01,0.04,0.19,0.01,0.03,0
0.033,-0.01,0.04,0.19,0.01,0.02,0
0.034,-0.01,0.04,0.19,0.01,0.02,0
0.036,-0.01,0.04,0.19,0.01,0.01,0
0.037,-0.01,0.04,0.19,0,0.01,0
0.041,-0.01,0.04,0.19,0,0,0
0.041,0.02,0.01,0.18,0,0,0
0.041,0.02,0.01,0.18,0,0,0
0.044,0.02,0.01,0.18,0,0,0
0.046,0.02,0.01,0.18,-0.01,0,0
0.047,0.02,0.01,0.18,-0.01,-0.01,0
0.063,0.02,0.01,0.18,-0.01,-0.01,0
0.064,0.02,0.01,0.18,-0.01,-0.02,0
0.064,0.02,0.01,0.18,-0.01,-0.02,0
0.064,0.02,0.01,0.18,-0.01,-0.03,0
0.064,0.02,0.01,0.18,-0.01,-0.03,0
0.064,0.02,0.01,0.18,-0.01,-0.03,0
0.065,0.02,0.01,0.18,-0.01,-0.03,0
0.065,0.03,0.01,0.21,-0.01,-0.03,0
0.065,0.03,0.01,0.21,-0.01,-0.03,0
0.065,0.03,0.01,0.21,-0.01,-0.03,0
0.065,0.03,0.01,0.21,-0.01,-0.02,0
0.066,0.03,0.01,0.21,-0.01,-0.02,0
0.067,0.03,0.01,0.21,-0.01,-0.02,0
0.071,0.03,0.01,0.21,-0.01,-0.02,0
0.071,0.02,-0.01,0.23,-0.01,-0.02,0
0.071,0.02,-0.01,0.23,-0.01,-0.02,0
0.075,0.02,-0.01,0.23,-0.01,-0.02,0
0.076,0.02,-0.01,0.23,-0.01,-0.02,0
0.078,0.02,-0.01,0.23,-0.01,-0.02,0
0.08,0.02,-0.01,0.23,-0.01,-0.01,0
0.081,0.01,-0.01,0.23,-0.01,-0.01,0
0.082,0.01,-0.01,0.23,0,-0.01,0
0.084,0.01,-0.01,0.23,0,-0.01,0
0.086,0.01,-0.01,0.23,0,-0.01,0
0.087,0.01,-0.01,0.23,0,0,0
0.103,0.01,-0.01,0.23,0,0,0
0.104,0.01,-0.01,0.23,0.01,0.01,0
0.104,0.01,-0.01,0.23,0.01,0.01,0
0.104,0.01,-0.01,0.23,0.01,0.01,0
0.104,0.01,-0.01,0.23,0.01,0.01,0
0.104,0.01,-0.01,0.23,0.01,0.01,0
0.105,0.01,-0.01,0.23,0.01,0.01,0
0.105,0.01,0,0.22,0.01,0.01,0
0.105,0.01,0,0.22,0.01,0.01,0
0.105,0.01,0,0.22,0.01,0.01,0
0.105,0.01,0,0.22,0.01,0.01,0
0.108,0.01,0,0.22,0.01,0.01,0
0.112,0.01,0,0.22,0.01,0.02,0
0.112,0,0.02,0.21,0.01,0.02,0
0.112,0,0.02,0.21,0.01,0.02,0
0.114,0,0.02,0.21,0.01,0.02,0
0.116,0,0.02,0.21,0.01,0.02,0
0.118,0,0.02,0.21,0,0.01,0
0.12,0,0.02,0.21,0.01,0.02,0
0.121,-0.01,0.05,0.2,0.01,0.02,0
0.121,-0.01,0.05,0.2,0.01,0.01,0
0.124,-0.01,0.05,0.2,0.01,0.01,0
0.126,-0.01,0.05,0.2,0,0.01,0
0.127,-0.01,0.05,0.2,0,0.01,0
0.143,-0.01,0.05,0.2,0,0.01,0
0.144,-0.01,0.05,0.2,0,0,0
0.144,-0.01,0.05,0.2,0,0,0
0.144,-0.01,0.05,0.2,0,0,0
0.144,-0.01,0.05,0.2,0,0,0
0.144,-0.01,0.05,0.2,0,0,0
0.144,-0.01,0.05,0.2,0,0,0
0.145,0.01,0.02,0.21,0,0,0
0.145,0.01,0.02,0.21,0,0,0
0.145,0.01,0.02,0.21,0,-0.01,0
0.146,0.01,0.02,0.21,-0.01,-0.01,0
0.147,0.01,0.02,0.21,-0.01,-0.01,0
0.151,0.01,0.02,0.21,-0.01,-0.01,0
0.151,0.02,0.01,0.19,-0.01,-0.01,0
0.152,0.02,0.01,0.19,-0.01,-0.01,0
0.154,0.02,0.01,0.19,-0.01,-0.01,0
0.155,0.02,0.01,0.19,-0.01,-0.01,0
0.158,0.02,0.01,0.19,-0.01,-0.01,0
0.16,0.02,0.01,0.19,-0.01,-0.01,0
0.161,0.04,-0.02,0.22,-0.01,-0.01,0
0.162,0.04,-0.02,0.22,-0.01,-0.01,0
0.164,0.04,-0.02,0.22,-0.01,-0.01,0
0.166,0.04,-0.02,0.22,-0.01,-0.01,0
0.167,0.04,-0.02,0.22,-0.01,-0.01,0
0.184,0.04,-0.02,0.22,0,-0.01,0
0.184,0.04,-0.02,0.22,0,0,0
0.184,0.04,-0.02,0.22,0,0,0
0.184,0.04,-0.02,0.22,0,0,0
0.185,0.04,-0.02,0.22,0,0,0
0.185,0.04,-0.02,0.22,0,-0.01,0
0.185,0.04,-0.02,0.22,0,-0.01,0
0.185,0.04,-0.02,0.22,0,0,0
0.185,0.02,-0.01,0.21,0,0,0
0.186,0.02,-0.01,0.21,0,0,0
0.186,0.02,-0.01,0.21,0,0,0
0.186,0.02,-0.01,0.21,0,0,0
0.187,0.02,-0.01,0.21,0,0,0
0.199,0.02,-0.01,0.21,0,0,0
0.199,0.01,0,0.23,0,0,0
0.199,0.01,0,0.23,0,0.01,0
0.199,0.01,0,0.23,0,0,0
0.2,0.01,0,0.23,0,0.01,0
0.2,0.01,0,0.23,0.01,0.01,0
0.201,0.01,0,0.23,0.01,0.01,0
0.201,0.03,0.02,0.22,0.01,0.01,0
0.201,0.03,0.02,0.22,0.01,0.01,0
0.203,0.03,0.02,0.22,0.01,0.01,0
0.206,0.03,0.02,0.22,0.01,0.01,0
0.208,0.03,0.02,0.22,0,0.01,0
0.222,0.03,0.02,0.22,0,0.01,0
0.223,0.03,0.02,0.22,0,0.01,0
0.225,0.03,0.02,0.22,0.01,0.01,0
0.226,0.03,0.02,0.22,0.01,0.01,0
0.226,0.03,0.02,0.22,0.01,0.01,0
0.226,0.03,0.02,0.22,0.01,0.01,0
0.226,0.03,0.02,0.22,0,0.01,0
0.226,-0.02,0.05,0.22,0,0.01,0
0.226,-0.02,0.05,0.22,0,0.01,0
0.226,-0.02,0.05,0.22,0,0.01,0
0.227,-0.02,0.05,0.22,0,0,0
0.232,-0.02,0.05,0.22,0,0.01,0
0.233,-0.02,0.05,0.22,0,0,0
0.233,-0.02,0.04,0.19,0,0,0
0.233,-0.02,0.04,0.19,0,0,0
0.234,-0.02,0.04,0.19,0,0,0
0.236,-0.02,0.04,0.19,0,0,0
0.237,-0.02,0.04,0.19,0,0,0
0.242,-0.02,0.04,0.19,0,0,0
0.242,0,0,0.2,0,0,0
0.242,0,0,0.2,-0.01,-0.01,0
0.243,0,0,0.2,0,-0.01,0
0.245,0,0,0.2,-0.01,-0.01,0
0.248,0,0,0.2,-0.01,-0.01,0
0.263,0,0,0.2,-0.01,-0.01,0
0.263,0,0,0.2,-0.01,-0.01,0
0.263,0,0,0.2,-0.01,-0.01,0
0.263,0,0,0.2,0,-0.01,0
0.264,0,0,0.2,0,-0.01,0
0.264,0,0,0.2,0,-0.02,0
0.264,0,0,0.2,0,-0.02,0
0.264,0.04,-0.06,0.18,0,-0.02,0
0.264,0.03,-0.05,0.18,0,-0.02,0
0.265,0.03,-0.05,0.18,-0.01,-0.01,0
0.266,0.03,-0.05,0.18,-0.01,-0.01,0
0.267,0.03,-0.05,0.18,0,-0.01,0
0.27,0.03,-0.05,0.18,0,-0.01,0
0.271,0.06,0,0.17,0,-0.01,0
0.272,0.06,0,0.17,0,-0.01,0
0.283,0.06,0,0.17,0,0,0
0.283,0.06,0,0.17,0,0,0
0.283,0.06,0,0.17,0,0,0
0.284,0.06,0,0.17,0,0,0
0.284,0.04,0.02,0.2,0,0,0
0.284,0.04,0.02,0.2,0,0.01,0
0.284,0.04,0.02,0.2,0,0.01,0
0.286,0.04,0.02,0.2,0.01,0.01,0
0.287,0.04,0.02,0.2,0,0.01,0
0.304,0.04,0.02,0.2,0.01,0.01,0
0.304,0.04,0.02,0.2,0.01,0.01,0
0.305,0.04,0.02,0.2,0,0.01,0
0.305,0.04,0.02,0.2,0.01,0.01,0
0.305,0.04,0.02,0.2,0.01,0.01,0
0.305,0.04,0.02,0.2,0.01,0.01,0
0.305,0.04,0.02,0.2,0.01,0.01,0
0.306,0.04,0.02,0.2,0.01,0.01,0
0.306,0,0.03,0.21,0.01,0.01,0
0.306,0,0.03,0.21,0.01,0.01,0
0.306,0.01,0.03,0.21,0.01,0.01,0
0.306,0.01,0.03,0.21,0.01,0.01,0
0.308,0.01,0.03,0.21,0,0.01,0
0.312,0.01,0.03,0.21,0.01,0.01,0
0.312,0.02,0.05,0.26,0.01,0.01,0
0.312,0.02,0.05,0.26,0,0.01,0
0.314,0.02,0.05,0.26,0,0.01,0
0.315,0.02,0.05,0.26,0,0.01,0
0.318,0.02,0.05,0.26,0,0.01,0
0.321,0.02,0.05,0.26,0,0,0
0.321,-0.02,0.02,0.24,0,0,0
0.322,-0.02,0.02,0.24,0,0,0
0.323,-0.02,0.02,0.24,0,0,0
0.325,-0.02,0.02,0.24,-0.01,0,0
0.328,-0.02,0.02,0.24,0,0,0
0.342,-0.02,0.02,0.24,0,0,0
0.342,-0.02,0.02,0.24,0,0,0
0.342,-0.02,0.02,0.24,0,0,0
0.343,-0.02,0.02,0.24,0,-0.01,0
0.343,-0.02,0.02,0.24,0,-0.01,0
0.343,-0.02,0.02,0.24,0,-0.01,0
0.343,-0.02,0.02,0.24,0,-0.01,0
0.343,-0.02,0.02,0.24,0,-0.01,0
0.344,-0.02,0.02,0.24,-0.01,-0.01,0
0.344,-0.02,0.02,0.24,0,-0.01,0
0.346,-0.02,0.02,0.24,0,-0.01,0
0.348,-0.02,0.02,0.24,-0.01,-0.01,0
0.351,-0.02,0.02,0.24,-0.01,-0.01,0
0.351,-0.01,-0.05,0.14,-0.01,-0.01,0
0.352,-0.01,-0.05,0.14,0,-0.01,0
0.353,-0.01,-0.05,0.14,-0.01,-0.01,0
0.355,-0.01,-0.05,0.14,0,-0.01,0
0.358,-0.01,-0.05,0.14,0,-0.01,0
0.361,-0.01,-0.05,0.14,0,-0.01,0
0.361,0.04,-0.04,0.16,0,-0.01,0
0.361,0.04,-0.04,0.16,0,-0.01,0
0.364,0.04,-0.04,0.16,0,-0.01,0
0.366,0.04,-0.04,0.16,0,-0.01,0
0.368,0.04,-0.04,0.16,0,0,0
0.383,0.04,-0.04,0.16,0,0,0
0.383,0.04,-0.04,0.16,0,0,0
0.383,0.04,-0.04,0.16,0,0,0
0.384,0.04,-0.04,0.16,0,0,0
0.384,0.04,-0.04,0.16,0.01,0.01,0
0.386,0.04,-0.04,0.16,0,0,0
0.387,0.04,-0.04,0.16,0,0,0
0.387,0.04,0.06,0.22,0,0,0
0.387,0.04,0.06,0.22,0,0,0
0.387,0.04,0.06,0.22,0.01,0,0
0.387,0.04,0.06,0.22,0,0.01,0
0.388,0.04,0.06,0.22,0.01,0.01,0
0.395,0.04,0.06,0.22,0.01,0.01,0
0.395,0.01,0.05,0.18,0.01,0.01,0
0.396,0.01,0.05,0.18,0,0.01,0
0.396,0.01,0.05,0.18,0.01,0.01,0
0.396,0.01,0.05,0.18,0.01,0.01,0
0.402,0.01,0.05,0.18,0,0.01,0
0.402,0.01,0.05,0.18,0.01,0.01,0
0.402,0.01,0.05,0.18,0.01,0.01,0
0.403,0.01,0.05,0.18,0,0.01,0
0.405,0.01,0.05,0.18,0,0.01,0
0.406,0.01,0.05,0.18,0,0.01,0
0.408,0.01,0.05,0.18,0,0,0
0.424,0.01,0.05,0.18,0,0.01,0
0.424,0.01,0.05,0.18,0,-0.01,-0.01
0.424,0.01,0.05,0.18,0,-0.01,-0.01
0.424,0.01,0.05,0.18,-0.02,-0.09,-0.02
0.425,0.01,0.05,0.18,-0.02,-0.09,-0.02
0.425,0.01,0.05,0.18,-0.02,-0.09,-0.02
0.425,0.01,0.05,0.18,-0.02,-0.09,-0.02
0.425,0.01,0.05,0.18,-0.05,-0.18,-0.03
0.425,-0.34,-0.27,0.23,-0.05,-0.18,-0.03
0.426,-0.34,-0.27,0.23,-0.05,-0.18,-0.03
0.426,-0.34,-0.27,0.23,-0.18,-0.34,-0.18
0.428,-0.34,-0.27,0.23,-0.26,-0.43,-0.39
0.432,-0.34,-0.27,0.23,-0.27,-0.46,-0.45
0.432,-0.34,-0.27,0.23,-0.26,-0.13,-0.54
0.433,-0.24,0.27,-0.48,-0.26,-0.13,-0.54
0.435,-0.24,0.27,-0.48,0.05,-0.06,-0.66
0.435,-0.24,0.27,-0.48,0.07,0.03,-0.71
0.438,-0.24,0.27,-0.48,-0.07,0.2,-0.71
0.44,-0.24,0.27,-0.48,-0.07,0.02,-0.75
0.441,-1.43,0.85,1.61,-0.07,0.02,-0.75
0.442,-1.43,0.85,1.61,-0.01,-0.03,-0.8
0.443,-1.43,0.85,1.61,-0.04,-0.06,-0.83
0.446,-1.43,0.85,1.61,-0.07,-0.06,-0.85
0.447,-1.43,0.85,1.61,-0.08,-0.02,-0.88
0.463,-1.43,0.85,1.61,-0.02,0.02,-0.89
0.463,-1.43,0.85,1.61,-0.07,-0.04,-0.56
0.464,-1.43,0.85,1.61,-0.07,-0.04,-0.56
0.464,-1.43,0.85,1.61,-0.07,-0.04,-0.56
0.464,-1.43,0.85,1.61,-0.07,-0.04,-0.56
0.464,-1.43,0.85,1.61,-0.08,-0.06,-0.52
0.464,-1.43,0.85,1.61,-0.1,-0.07,-0.47
0.465,-0.62,-0.82,-0.24,-0.1,-0.07,-0.47
0.465,-0.62,-0.81,-0.24,-0.1,-0.07,-0.47
0.465,-0.62,-0.81,-0.24,-0.14,0.03,-0.33
0.466,-0.62,-0.81,-0.24,-0.21,-0.01,-0.17
0.468,-0.62,-0.81,-0.24,-0.22,0.01,-0.09
0.471,-0.62,-0.81,-0.24,-0.19,0.11,0
0.471,0.4,-0.18,0.4,-0.19,0.11,0
0.472,0.4,-0.18,0.4,-0.27,0.2,0.14
0.478,0.4,-0.18,0.4,-0.33,0.24,0.2
0.479,0.4,-0.18,0.4,-0.39,0.31,0.28
0.479,0.4,-0.18,0.4,-0.43,0.33,0.34
0.481,0.4,-0.18,0.4,-0.49,0.34,0.39
0.482,0.31,1.04,-0.01,-0.49,0.34,0.39
0.483,0.31,1.04,-0.01,-0.49,0.36,0.4
0.484,0.31,1.04,-0.01,-0.38,0.18,0.35
0.486,0.31,1.04,-0.01,-0.34,0.1,0.32
0.488,0.31,1.04,-0.01,-0.35,0.14,0.32
0.502,0.31,1.04,-0.01,-0.33,0.17,0.31
0.503,0.31,1.04,-0.01,-0.24,0.54,0.26
0.503,0.31,1.04,-0.01,-0.24,0.56,0.27
0.503,0.31,1.04,-0.01,-0.24,0.56,0.27
0.504,0.31,1.04,-0.01,-0.24,0.56,0.27
0.504,0.31,1.04,-0.01,-0.26,0.57,0.29
0.504,0.31,1.04,-0.01,-0.26,0.57,0.29
0.504,-0.96,0.68,0.48,-0.26,0.57,0.29
0.504,-0.88,0.74,0.48,-0.26,0.57,0.29
0.505,-0.82,0.76,0.48,-0.26,0.57,0.29
0.505,-0.82,0.76,0.48,-0.27,0.56,0.29
0.506,-0.82,0.76,0.48,-0.29,0.53,0.32
0.509,-0.82,0.76,0.48,-0.3,0.52,0.35
0.511,-0.82,0.76,0.48,-0.31,0.52,0.38
0.511,-0.39,-0.45,0.37,-0.31,0.52,0.38
0.511,-0.39,-0.45,0.37,-0.32,0.52,0.4
0.514,-0.39,-0.45,0.37,-0.32,0.53,0.41
0.515,-0.39,-0.45,0.37,-0.32,0.55,0.42
0.517,-0.39,-0.45,0.37,-0.32,0.55,0.42
0.52,-0.39,-0.45,0.37,-0.32,0.55,0.41
0.52,1.18,-0.95,0.13,-0.32,0.55,0.41
0.522,1.18,-0.95,0.13,-0.32,0.53,0.39
0.524,1.18,-0.95,0.13,-0.32,0.51,0.34
0.526,1.18,-0.95,0.13,-0.32,0.49,0.32
0.527,1.18,-0.95,0.13,-0.32,0.47,0.27
0.543,1.18,-0.95,0.13,-0.31,0.45,0.2
0.544,1.18,-0.95,0.13,-0.34,0.27,0.02
0.544,1.18,-0.95,0.13,-0.33,0.25,0
0.544,1.18,-0.95,0.13,-0.34,0.23,-0.02
0.544,1.18,-0.95,0.13,-0.34,0.23,-0.02
0.545,1.18,-0.95,0.13,-0.34,0.23,-0.02
0.545,1.18,-0.95,0.13,-0.34,0.21,-0.04
0.545,1.18,-0.95,0.13,-0.34,0.19,-0.05
0.548,2.22,0.49,0.09,-0.34,0.19,-0.05
0.548,2.27,0.52,0.1,-0.34,0.19,-0.05
0.548,2.29,0.56,0.1,-0.34,0.19,-0.05
0.549,2.29,0.56,0.1,-0.36,0.1,-0.09
0.549,2.29,0.56,0.1,-0.39,0.02,-0.12
0.551,2.29,0.56,0.1,-0.44,-0.14,-0.17
0.552,3.06,0.45,0.06,-0.44,-0.14,-0.17
0.552,3.06,0.45,0.06,-0.49,-0.26,-0.22
0.553,3.06,0.45,0.06,-0.55,-0.4,-0.28
0.555,3.06,0.45,0.06,-0.58,-0.47,-0.31
0.558,3.06,0.45,0.06,-0.66,-0.65,-0.37
0.562,3.06,0.45,0.06,-0.76,-0.84,-0.42
0.562,3.06,0.45,0.06,-0.8,-0.94,-0.44
0.562,3.15,-0.19,0.16,-0.8,-0.94,-0.44
0.564,3.15,-0.19,0.16,-0.92,-1.15,-0.45
0.565,3.15,-0.19,0.16,-1.04,-1.39,-0.43
0.568,3.15,-0.19,0.16,-1.15,-1.64,-0.36
0.58,3.15,-0.19,0.16,-1.22,-1.79,-0.32
0.581,3.15,-0.19,0.16,-0.68,-1.49,0.54
0.581,3.15,-0.19,0.16,-0.68,-1.49,0.54
0.581,3.15,-0.19,0.16,-0.77,-2.19,0.57
0.582,3.15,-0.19,0.16,-0.77,-2.19,0.57
0.582,3.15,-0.19,0.16,-0.77,-2.19,0.57
0.582,-2.56,1.49,1.99,-0.77,-2.19,0.57
0.582,-2.73,1.61,1.99,-0.77,-2.19,0.57
0.582,-2.73,1.61,1.99,-0.57,-2.46,0.8
0.59,-2.73,1.61,1.99,-0.38,-2.58,0.92
0.591,-2.73,1.61,1.99,-0.27,-3.47,1.13
0.591,-2.73,1.61,1.99,-0.07,-4.04,1.35
0.597,-2.73,1.61,1.99,0.06,-4.68,1.54
0.597,-1.05,-0.07,8.37,0.06,-4.68,1.54
0.598,-1.05,-0.07,8.37,0.06,-4.98,1.63
0.598,-1.05,-0.07,8.37,0.12,-5.45,1.85
0.598,-1.05,-0.07,8.37,0.09,-5.95,2.13
0.598,-1.05,-0.07,8.37,0.1,-6.38,2.46
0.602,-1.05,-0.07,8.37,0.09,-6.58,2.66
0.602,3.77,-0.85,5.82,0.09,-6.58,2.66
0.604,3.77,-0.85,5.82,0.15,-6.87,3.14
0.605,3.77,-0.85,5.82,0.21,-7.01,3.56
0.607,3.77,-0.85,5.82,0.23,-7.06,3.7
0.608,3.77,-0.85,5.82,0.29,-6.86,3.91
0.625,3.77,-0.85,5.82,0.35,-6.61,4
0.626,3.77,-0.85,5.82,-0.04,-4.81,0.23
0.626,3.77,-0.85,5.82,-0.04,-4.81,0.23
0.626,3.77,-0.85,5.82,-0.08,-4.2,-0.1
0.626,3.77,-0.85,5.82,-0.11,-3.47,-0.36
0.627,3.77,-0.85,5.82,-0.11,-3.47,-0.36
0.627,3.77,-0.85,5.82,-0.11,-3.47,-0.36
0.627,3.77,-0.85,5.82,-0.07,-2.03,-0.77
0.627,3.36,-0.95,-6.82,-0.07,-2.03,-0.77
0.627,2.3,-0.91,-6.59,-0.07,-2.03,-0.77
0.627,2.3,-0.91,-6.59,0.01,-0.67,-0.98
0.628,2.3,-0.91,-6.59,0.13,0.51,-0.99
0.631,2.3,-0.91,-6.59,0.22,1,-0.94
0.631,-1.59,-2.99,-7.97,0.22,1,-0.94
0.631,-1.59,-2.99,-7.97,0.32,1.72,-0.79
0.634,-1.59,-2.99,-7.97,0.34,2.11,-0.68
0.636,-1.59,-2.99,-7.97,0.29,2.2,-0.66
0.638,-1.59,-2.99,-7.97,0.18,2.22,-0.71
0.642,-1.59,-2.99,-7.97,0.02,2.04,-0.81
0.643,0.02,-4.83,-6.52,0.02,2.04,-0.81
0.643,0.02,-4.83,-6.52,-0.18,1.72,-0.89
0.647,0.02,-4.83,-6.52,-0.29,1.52,-0.92
0.647,0.02,-4.83,-6.52,-0.55,1.09,-0.96
0.648,0.02,-4.83,-6.52,-0.79,0.7,-0.95
0.664,0.02,-4.83,-6.52,-0.9,0.54,-0.93
0.664,0.02,-4.83,-6.52,-1.36,0.11,-0.41
0.665,0.02,-4.83,-6.52,-1.35,0.16,-0.36
0.665,0.02,-4.83,-6.52,-1.35,0.21,-0.31
0.665,0.02,-4.83,-6.52,-1.35,0.21,-0.31
0.665,0.02,-4.83,-6.52,-1.35,0.21,-0.31
0.666,0.02,-4.83,-6.52,-1.35,0.21,-0.31
0.666,0.02,-4.83,-6.52,-1.32,0.29,-0.25
0.666,-4.42,1.25,0.44,-1.32,0.29,-0.25
0.666,-4.37,1.42,0.44,-1.32,0.29,-0.25
0.667,-4.36,1.54,0.45,-1.32,0.29,-0.25
0.667,-4.36,1.54,0.45,-1.29,0.33,-0.23
0.668,-4.36,1.54,0.45,-1.21,0.39,-0.21
0.672,-4.36,1.54,0.45,-1.09,0.42,-0.22
0.672,-4.36,1.54,0.45,-0.94,0.43,-0.23
0.672,-1.06,0.07,5.11,-0.94,0.43,-0.23
0.674,-1.06,0.07,5.11,-0.86,0.44,-0.27
0.679,-1.06,0.07,5.11,-0.68,0.46,-0.32
0.68,-1.06,0.07,5.11,-0.5,0.49,-0.38
0.686,-1.06,0.07,5.11,-0.41,0.52,-0.41
0.687,-1.06,0.07,5.11,-0.23,0.57,-0.48
0.687,0.5,-1.34,7.91,-0.23,0.57,-0.48
0.687,0.5,-1.34,7.91,-0.05,0.65,-0.54
0.687,0.5,-1.34,7.91,0.12,0.73,-0.6
0.688,0.5,-1.34,7.91,0.2,0.78,-0.64
0.703,0.5,-1.34,7.91,0.35,0.88,-0.69
0.703,0.5,-1.34,7.91,0.84,1.14,-0.85
0.704,0.5,-1.34,7.91,0.84,1.14,-0.85
0.704,0.5,-1.34,7.91,0.84,1.14,-0.85
0.704,0.5,-1.34,7.91,0.84,1.14,-0.85
0.704,0.5,-1.34,7.91,0.9,1.15,-0.87
0.704,0.5,-1.34,7.91,0.95,1.15,-0.89
0.705,-1.05,1.72,6.37,0.95,1.15,-0.89
0.705,-0.88,1.57,6.31,0.95,1.15,-0.89
0.705,-0.88,1.57,6.31,1.05,1.14,-0.93
0.709,-0.88,1.57,6.31,1.14,1.12,-0.98
0.71,-0.88,1.57,6.31,1.24,1.1,-1.04
0.714,-0.88,1.57,6.31,1.31,1.09,-1.05
0.716,-0.88,1.57,6.31,1.45,1.09,-1.07
0.716,-0.87,1.39,6.74,1.45,1.09,-1.07
0.716,-0.87,1.39,6.74,1.58,1.11,-1.09
0.716,-0.87,1.39,6.74,1.64,1.12,-1.11
0.718,-0.87,1.39,6.74,1.78,1.16,-1.14
0.72,-0.87,1.39,6.74,1.91,1.24,-1.16
0.721,0.08,-1.14,7.47,1.91,1.24,-1.16
0.721,0.08,-1.14,7.47,2.04,1.34,-1.19
0.724,0.08,-1.14,7.47,2.11,1.37,-1.2
0.728,0.08,-1.14,7.47,2.25,1.46,-1.24
0.729,0.08,-1.14,7.47,2.39,1.58,-1.27
0.744,0.08,-1.14,7.47,2.52,1.7,-1.32
0.745,0.08,-1.14,7.47,2.93,1.93,-1.49
0.745,0.08,-1.14,7.47,2.93,1.93,-1.49
0.745,0.08,-1.14,7.47,2.93,1.93,-1.49
0.746,0.08,-1.14,7.47,2.95,1.93,-1.51
0.746,0.08,-1.14,7.47,2.97,1.93,-1.54
0.746,0.08,-1.14,7.47,2.97,1.93,-1.54
0.746,0.08,-1.14,7.47,3,1.91,-1.61
0.747,0.2,-2.92,4.52,3,1.91,-1.61
0.748,0.36,-3.19,4.48,3,1.91,-1.61
0.748,0.54,-3.5,4.44,3,1.91,-1.61
0.748,0.54,-3.5,4.44,3.01,1.91,-1.65
0.748,0.54,-3.5,4.44,3.03,1.92,-1.72
0.751,0.54,-3.5,4.44,3.03,1.95,-1.81
0.751,1.08,-2.98,2.88,3.03,1.95,-1.81
0.752,1.08,-2.98,2.88,3.02,2.01,-1.88
0.754,1.08,-2.98,2.88,3.02,2.06,-1.92
0.756,1.08,-2.98,2.88,2.99,2.18,-1.98
0.757,1.08,-2.98,2.88,2.96,2.33,-2.04
0.761,1.08,-2.98,2.88,2.95,2.41,-2.06
0.762,0.63,-2.14,1.44,2.95,2.41,-2.06
0.763,0.63,-2.14,1.44,2.9,2.6,-2.11
0.766,0.63,-2.14,1.44,2.84,2.79,-2.16
0.766,0.63,-2.14,1.44,2.77,2.97,-2.21
0.768,0.63,-2.14,1.44,2.73,3.06,-2.24
0.784,0.63,-2.14,1.44,2.65,3.22,-2.3
0.784,0.63,-2.14,1.44,2.27,3.79,-2.62
0.785,0.63,-2.14,1.44,2.23,3.87,-2.65
0.785,0.63,-2.14,1.44,2.19,3.95,-2.68
0.785,0.63,-2.14,1.44,2.19,3.95,-2.68
0.785,0.63,-2.14,1.44,2.19,3.95,-2.68
0.786,0.63,-2.14,1.44,2.19,3.95,-2.68
0.786,0.63,-2.14,1.44,2.15,4.05,-2.71
0.786,2.33,0.01,-0.17,2.15,4.05,-2.71
0.786,2.67,-0.27,-0.16,2.15,4.05,-2.71
0.786,3.07,-0.5,-0.15,2.15,4.05,-2.71
0.787,3.07,-0.5,-0.15,2.07,4.26,-2.75
0.788,3.07,-0.5,-0.15,2.01,4.49,-2.79
0.798,3.07,-0.5,-0.15,1.97,4.59,-2.8
0.798,3.07,-0.5,-0.15,1.92,4.8,-2.82
0.799,2.63,-1.87,-0.34,1.92,4.8,-2.82
0.799,2.63,-1.87,-0.34,1.86,4.98,-2.84
0.799,2.63,-1.87,-0.34,1.81,5.15,-2.82
0.799,2.63,-1.87,-0.34,1.77,5.24,-2.81
0.803,2.63,-1.87,-0.34,1.72,5.42,-2.76
0.803,1.26,-2.46,-1.2,1.72,5.42,-2.76
0.803,1.26,-2.46,-1.2,1.67,5.6,-2.7
0.804,1.26,-2.46,-1.2,1.66,5.67,-2.66
0.806,1.26,-2.46,-1.2,1.62,5.8,-2.58
0.808,1.26,-2.46,-1.2,1.59,5.9,-2.5
0.821,1.26,-2.46,-1.2,1.55,5.96,-2.43
0.822,1.26,-2.46,-1.2,1.36,5.85,-2.25
0.822,1.26,-2.46,-1.2,1.36,5.85,-2.25
0.822,1.26,-2.46,-1.2,1.36,5.85,-2.25
0.822,1.26,-2.46,-1.2,1.36,5.85,-2.25
0.822,1.26,-2.46,-1.2,1.36,5.85,-2.25
0.823,-0.03,-1.62,-2.95,1.36,5.85,-2.25
0.823,0.58,-1.74,-2.86,1.36,5.85,-2.25
0.823,0.58,-1.74,-2.86,1.3,5.76,-2.22
0.824,0.58,-1.74,-2.86,1.23,5.68,-2.21
0.826,0.58,-1.74,-2.86,1.19,5.64,-2.2
0.828,0.58,-1.74,-2.86,1.11,5.56,-2.2
0.832,0.58,-1.74,-2.86,1.03,5.51,-2.19
0.832,0.58,-1.74,-2.86,0.95,5.47,-2.18
0.832,0.67,-1.4,-3.68,0.95,5.47,-2.18
0.834,0.67,-1.4,-3.68,0.91,5.46,-2.17
0.835,0.67,-1.4,-3.68,0.83,5.44,-2.15
0.837,0.67,-1.4,-3.68,0.76,5.41,-2.11
0.841,0.67,-1.4,-3.68,0.69,5.39,-2.07
0.843,-0.86,-0.94,-3.04,0.69,5.39,-2.07
0.843,-0.86,-0.94,-3.04,0.66,5.37,-2.04
0.844,-0.86,-0.94,-3.04,0.62,5.33,-1.98
0.846,-0.86,-0.94,-3.04,0.58,5.29,-1.91
0.848,-0.86,-0.94,-3.04,0.58,5.27,-1.87
0.866,-0.86,-0.94,-3.04,0.57,5.22,-1.78
0.867,-0.86,-0.94,-3.04,0.64,5.02,-1.6
0.867,-0.86,-0.94,-3.04,0.64,4.97,-1.62
0.868,-0.86,-0.94,-3.04,0.64,4.97,-1.62
0.868,-0.86,-0.94,-3.04,0.64,4.97,-1.62
0.869,-0.86,-0.94,-3.04,0.65,4.93,-1.65
0.869,-0.86,-0.94,-3.04,0.65,4.89,-1.69
0.87,-0.86,-0.94,-3.04,0.66,4.84,-1.73
0.87,-0.86,-0.94,-3.04,0.66,4.73,-1.83
0.87,1.5,-1.91,-0.25,0.66,4.73,-1.83
0.871,2.48,-1.9,0.13,0.66,4.73,-1.83
0.871,2.94,-1.89,0.36,0.66,4.73,-1.83
0.874,2.94,-1.89,0.36,0.67,4.63,-1.95
0.875,2.94,-1.89,0.36,0.66,4.57,-2.01
0.875,4.7,-1.29,-0.18,0.66,4.57,-2.01
0.875,4.7,-1.29,-0.18,0.66,4.45,-2.15
0.875,4.7,-1.29,-0.18,0.64,4.32,-2.29
0.876,4.7,-1.29,-0.18,0.62,4.19,-2.43
0.88,4.7,-1.29,-0.18,0.61,4.14,-2.49
0.881,4.7,-1.29,-0.18,0.58,4.03,-2.61
0.881,4.28,-0.71,-0.29,0.58,4.03,-2.61
0.882,4.28,-0.71,-0.29,0.56,3.95,-2.71
0.886,4.28,-0.71,-0.29,0.53,3.9,-2.78
0.887,4.28,-0.71,-0.29,0.5,3.85,-2.8
0.888,4.28,-0.71,-0.29,0.42,3.71,-2.84
0.904,4.28,-0.71,-0.29,0.35,3.61,-2.87
0.905,4.28,-0.71,-0.29,0.18,3.37,-2.97
0.905,4.28,-0.71,-0.29,0.16,3.37,-2.99
0.905,4.28,-0.71,-0.29,0.15,3.38,-3
0.905,4.28,-0.71,-0.29,0.15,3.38,-3
0.906,4.28,-0.71,-0.29,0.15,3.38,-3
0.906,4.28,-0.71,-0.29,0.15,3.38,-3
0.906,4.28,-0.71,-0.29,0.13,3.4,-3.01
0.906,1.63,-1.18,-0.89,0.13,3.4,-3.01
0.907,2.28,-0.89,-0.48,0.13,3.4,-3.01
0.907,2.28,-0.89,-0.48,0.12,3.4,-3.01
0.909,2.28,-0.89,-0.48,0.13,3.38,-3.01
0.912,2.28,-0.89,-0.48,0.13,3.31,-2.99
0.912,2.28,-0.89,-0.48,0.18,3.16,-2.86
0.913,-1.48,0.15,0.16,0.18,3.16,-2.86
0.914,-1.48,0.15,0.16,0.25,3.01,-2.71
0.916,-1.48,0.15,0.16,0.3,2.94,-2.63
0.917,-1.48,0.15,0.16,0.4,2.84,-2.45
0.922,-1.48,0.15,0.16,0.51,2.77,-2.28
0.922,-1.48,0.15,0.16,0.58,2.74,-2.2
0.922,-4.6,1.53,2.36,0.58,2.74,-2.2
0.925,-4.6,1.53,2.36,0.71,2.71,-2.04
0.93,-4.6,1.53,2.36,0.84,2.71,-1.9
0.93,-4.6,1.53,2.36,0.97,2.74,-1.79
0.943,-4.6,1.53,2.36,1.03,2.77,-1.74
0.944,-4.6,1.53,2.36,1.39,2.77,-1.4
0.944,-4.6,1.53,2.36,1.39,2.77,-1.4
0.944,-4.6,1.53,2.36,1.39,2.77,-1.4
0.945,-4.6,1.53,2.36,1.41,2.71,-1.38
0.945,-4.6,1.53,2.36,1.42,2.64,-1.35
0.945,-4.6,1.53,2.36,1.42,2.64,-1.35
0.945,-4.37,1.64,2.55,1.42,2.64,-1.35
0.945,-3.96,1.7,2.97,1.42,2.64,-1.35
0.946,-3.77,1.71,3.18,1.42,2.64,-1.35
0.946,-3.77,1.71,3.18,1.43,2.56,-1.32
0.946,-3.77,1.71,3.18,1.44,2.35,-1.28
0.948,-3.77,1.71,3.18,1.45,2.1,-1.25
0.951,-3.77,1.71,3.18,1.43,1.83,-1.24
0.952,-3.77,1.71,3.18,1.42,1.7,-1.23
0.952,-0.15,1.97,0.54,1.42,1.7,-1.23
0.954,-0.15,1.97,0.54,1.36,1.4,-1.23
0.956,-0.15,1.97,0.54,1.29,1.06,-1.23
0.959,-0.15,1.97,0.54,1.21,0.72,-1.22
0.961,-0.15,1.97,0.54,1.16,0.55,-1.22
0.962,-0.77,2.01,0.06,1.16,0.55,-1.22
0.963,-0.77,2.01,0.06,1.06,0.19,-1.19
0.975,-0.77,2.01,0.06,0.94,-0.24,-1.14
0.977,-0.77,2.01,0.06,0.88,-0.47,-1.11
0.977,-0.77,2.01,0.06,0.75,-0.97,-1.02
0.982,-0.77,2.01,0.06,0.62,-1.46,-0.91
0.982,-0.77,2.01,0.06,0.19,-3.23,-0.44
0.983,-0.77,2.01,0.06,0.19,-3.23,-0.44
0.983,-0.77,2.01,0.06,0.19,-3.23,-0.44
0.983,-0.77,2.01,0.06,0.15,-3.41,-0.38
0.983,-0.77,2.01,0.06,0.12,-3.58,-0.33
0.983,-0.77,2.01,0.06,0.12,-3.58,-0.33
0.983,-3.76,3.25,0.12,0.12,-3.58,-0.33
0.984,-4.04,3.3,-0.22,0.12,-3.58,-0.33
0.984,-4.26,3.32,-0.46,0.12,-3.58,-0.33
0.984,-4.26,3.32,-0.46,0.08,-3.89,-0.24
0.985,-4.26,3.32,-0.46,0.06,-4.17,-0.17
0.987,-4.26,3.32,-0.46,0.05,-4.31,-0.15
0.99,-4.26,3.32,-0.46,0.06,-4.57,-0.11
0.99,-0.83,2.41,-0.65,0.06,-4.57,-0.11
0.992,-0.83,2.41,-0.65,0.09,-4.82,-0.09
0.993,-0.83,2.41,-0.65,0.15,-5.11,0
0.995,-0.83,2.41,-0.65,0.21,-5.26,0.06
0.997,-0.83,2.41,-0.65,0.31,-5.55,0.18
1,-0.83,2.41,-0.65,0.41,-5.81,0.29
1.001,1.24,0.97,-1.47,0.41,-5.81,0.29
1.001,1.24,0.97,-1.47,0.51,-6.06,0.38
1.003,1.24,0.97,-1.47,0.55,-6.17,0.42
1.005,1.24,0.97,-1.47,0.63,-6.37,0.49
1.008,1.24,0.97,-1.47,0.7,-6.56,0.56
1.025,1.24,0.97,-1.47,0.74,-6.64,0.58
1.025,1.24,0.97,-1.47,1.03,-7.39,0.79
1.025,1.24,0.97,-1.47,1.06,-7.49,0.81
1.026,1.24,0.97,-1.47,1.1,-7.6,0.83
1.026,1.24,0.97,-1.47,1.1,-7.6,0.83
1.026,1.24,0.97,-1.47,1.1,-7.6,0.83
1.026,1.24,0.97,-1.47,1.1,-7.6,0.83
1.026,1.24,0.97,-1.47,1.19,-7.85,0.87
1.027,3.04,-0.7,-3.68,1.19,-7.85,0.87
1.027,2.53,-0.79,-4.07,1.19,-7.85,0.87
1.027,1.93,-0.91,-4.46,1.19,-7.85,0.87
1.027,1.93,-0.91,-4.46,1.23,-7.99,0.9
1.027,1.93,-0.91,-4.46,1.34,-8.32,0.94
1.031,1.93,-0.91,-4.46,1.45,-8.71,0.96
1.031,0.88,-1.34,-2.39,1.45,-8.71,0.96
1.031,0.88,-1.34,-2.39,1.48,-8.84,0.96
1.033,0.88,-1.34,-2.39,1.41,-8.69,0.9
1.035,0.88,-1.34,-2.39,1.11,-7.77,0.72
1.037,0.88,-1.34,-2.39,0.91,-7.25,0.49
1.04,0.88,-1.34,-2.39,0.86,-7.19,0.39
1.04,1.7,-2.97,-0.05,0.86,-7.19,0.39
1.042,1.7,-2.97,-0.05,0.77,-7.18,0.17
1.043,1.7,-2.97,-0.05,0.62,-7.12,-0.06
1.045,1.7,-2.97,-0.05,0.38,-6.92,-0.32
1.047,1.7,-2.97,-0.05,0.25,-6.8,-0.45
1.062,1.7,-2.97,-0.05,0.02,-6.63,-0.67
1.063,1.7,-2.97,-0.05,-0.52,-6.12,-1.06
1.063,1.7,-2.97,-0.05,-0.52,-6.12,-1.06
1.063,1.7,-2.97,-0.05,-0.58,-5.8,-1.08
1.063,1.7,-2.97,-0.05,-0.63,-5.39,-1.1
1.063,1.7,-2.97,-0.05,-0.63,-5.39,-1.1
1.064,1.7,-2.97,-0.05,-0.63,-5.39,-1.1
1.064,1.3,-1.1,6,-0.63,-5.39,-1.1
1.064,0.14,-1.01,5.67,-0.63,-5.39,-1.1
1.064,-0.4,-0.94,5.56,-0.63,-5.39,-1.1
1.064,-0.4,-0.94,5.56,-0.69,-4.62,-1.14
1.066,-0.4,-0.94,5.56,-0.68,-4.26,-1.16
1.067,-0.4,-0.94,5.56,-0.64,-4.22,-1.14
1.071,-0.4,-0.94,5.56,-0.6,-4.27,-1.11
1.071,1.63,1.39,6.14,-0.6,-4.27,-1.11
1.072,1.63,1.39,6.14,-0.52,-4.39,-1.04
1.073,1.63,1.39,6.14,-0.42,-4.48,-0.94
1.079,1.63,1.39,6.14,-0.38,-4.5,-0.89
1.079,1.63,1.39,6.14,-0.29,-4.45,-0.77
1.081,1.63,1.39,6.14,-0.2,-4.26,-0.64
1.082,0.31,1.22,3.6,-0.2,-4.26,-0.64
1.082,0.31,1.22,3.6,-0.12,-4,-0.51
1.084,0.31,1.22,3.6,-0.07,-3.86,-0.45
1.086,0.31,1.22,3.6,0.03,-3.58,-0.33
1.088,0.31,1.22,3.6,0.15,-3.38,-0.22
1.102,0.31,1.22,3.6,0.27,-3.24,-0.12
1.103,0.31,1.22,3.6,0.79,-3.08,0.14
1.103,0.31,1.22,3.6,0.79,-3.08,0.14
1.103,0.31,1.22,3.6,0.79,-3.08,0.14
1.103,0.31,1.22,3.6,0.79,-3.08,0.14
1.104,0.31,1.22,3.6,0.85,-3.07,0.16
1.104,0.31,1.22,3.6,0.91,-3.05,0.17
1.104,-0.78,-1.87,-2.15,0.91,-3.05,0.17
1.104,-1.39,-1.98,-2.15,0.91,-3.05,0.17
1.104,-1.39,-1.98,-2.15,1,-2.99,0.2
1.106,-1.39,-1.98,-2.15,1.05,-2.96,0.22
1.108,-1.39,-1.98,-2.15,1.14,-2.88,0.26
1.111,-1.39,-1.98,-2.15,1.24,-2.82,0.31
1.111,-4.36,-2.95,-3.68,1.24,-2.82,0.31
1.113,-4.36,-2.95,-3.68,1.33,-2.79,0.38
1.114,-4.36,-2.95,-3.68,1.38,-2.79,0.42
1.116,-4.36,-2.95,-3.68,1.5,-2.8,0.51
1.118,-4.36,-2.95,-3.68,1.63,-2.84,0.6
1.12,-4.36,-2.95,-3.68,1.7,-2.86,0.65
1.121,-6.16,-2.11,-2.23,1.7,-2.86,0.65
1.122,-6.16,-2.11,-2.23,1.84,-2.91,0.74
1.123,-6.16,-2.11,-2.23,2,-2.98,0.83
1.125,-6.16,-2.11,-2.23,2.17,-3.04,0.92
1.127,-6.16,-2.11,-2.23,2.26,-3.07,0.97
1.143,-6.16,-2.11,-2.23,2.44,-3.13,1.06
1.143,-6.16,-2.11,-2.23,3.41,-3.3,1.39
1.143,-6.16,-2.11,-2.23,3.41,-3.3,1.39
1.143,-6.16,-2.11,-2.23,3.53,-3.31,1.41
1.144,-6.16,-2.11,-2.23,3.53,-3.31,1.41
1.144,-6.16,-2.11,-2.23,3.64,-3.32,1.43
1.144,-6.16,-2.11,-2.23,3.64,-3.32,1.43
1.144,-5.47,-0.02,2.87,3.64,-3.32,1.43
1.144,-5.79,-0.24,2.96,3.64,-3.32,1.43
1.145,-6.14,-0.55,3.08,3.64,-3.32,1.43
1.145,-6.14,-0.55,3.08,3.76,-3.34,1.45
1.146,-6.14,-0.55,3.08,4,-3.38,1.47
1.148,-6.14,-0.55,3.08,4.25,-3.44,1.47
1.151,-6.14,-0.55,3.08,4.38,-3.47,1.46
1.151,-1.59,-0.2,5.32,4.38,-3.47,1.46
1.152,-1.59,-0.2,5.32,4.63,-3.56,1.44
1.154,-1.59,-0.2,5.32,4.9,-3.65,1.38
1.156,-1.59,-0.2,5.32,5.16,-3.74,1.31
1.157,-1.59,-0.2,5.32,5.3,-3.77,1.26
1.161,-1.59,-0.2,5.32,5.55,-3.84,1.15
1.162,2.77,-0.78,7.05,5.55,-3.84,1.15
1.162,2.77,-0.78,7.05,5.8,-3.86,1.01
1.164,2.77,-0.78,7.05,5.91,-3.86,0.94
1.165,2.77,-0.78,7.05,6.11,-3.87,0.77
1.167,2.77,-0.78,7.05,6.25,-3.95,0.6
1.182,2.77,-0.78,7.05,6.31,-4.13,0.4
1.182,2.77,-0.78,7.05,5.64,-5.67,-0.58
1.183,2.77,-0.78,7.05,5.64,-5.67,-0.58
1.183,2.77,-0.78,7.05,5.64,-5.67,-0.58
1.183,2.77,-0.78,7.05,5.64,-5.67,-0.58
1.183,2.77,-0.78,7.05,5.49,-5.87,-0.71
1.183,2.77,-0.78,7.05,5.33,-6.05,-0.84
1.183,1.87,0.82,-1.14,5.33,-6.05,-0.84
1.183,1.04,-0.22,-0.42,5.33,-6.05,-0.84
1.183,1.04,-0.22,-0.42,5.02,-6.35,-1.09
1.185,1.04,-0.22,-0.42,4.87,-6.48,-1.21
1.187,1.04,-0.22,-0.42,4.59,-6.65,-1.43
1.191,1.04,-0.22,-0.42,4.33,-6.74,-1.66
1.195,-0.43,0.04,-2.95,4.33,-6.74,-1.66
1.198,-0.43,0.04,-2.95,4.1,-6.72,-1.86
1.198,-0.43,0.04,-2.95,3.99,-6.69,-1.96
1.198,-0.43,0.04,-2.95,3.8,-6.55,-2.13
1.198,-0.43,0.04,-2.95,3.63,-6.35,-2.28
1.201,-0.43,0.04,-2.95,3.47,-6.11,-2.41
1.201,-2.21,-0.43,-3.38,3.47,-6.11,-2.41
1.201,-2.21,-0.43,-3.38,3.4,-5.99,-2.46
1.204,-2.21,-0.43,-3.38,3.26,-5.72,-2.55
1.206,-2.21,-0.43,-3.38,3.13,-5.44,-2.61
1.207,-2.21,-0.43,-3.38,3.07,-5.29,-2.64
1.223,-2.21,-0.43,-3.38,2.95,-5,-2.67
1.224,-2.21,-0.43,-3.38,2.47,-3.81,-2.64
1.224,-2.21,-0.43,-3.38,2.47,-3.81,-2.64
1.224,-2.21,-0.43,-3.38,2.41,-3.67,-2.62
1.224,-2.21,-0.43,-3.38,2.41,-3.67,-2.62
1.224,-2.21,-0.43,-3.38,2.34,-3.53,-2.59
1.225,-2.21,-0.43,-3.38,2.34,-3.53,-2.59
1.225,-5.11,-1.43,-5.17,2.34,-3.53,-2.59
1.225,-5.37,-2.02,-4.48,2.34,-3.53,-2.59
1.225,-5.42,-2.28,-4.16,2.34,-3.53,-2.59
1.226,-5.42,-2.28,-4.16,2.22,-3.25,-2.53
1.226,-5.42,-2.28,-4.16,2.1,-2.97,-2.47
1.228,-5.42,-2.28,-4.16,1.98,-2.68,-2.42
1.231,-5.42,-2.28,-4.16,1.93,-2.52,-2.41
1.231,-4.99,-3.54,-4.23,1.93,-2.52,-2.41
1.232,-4.99,-3.54,-4.23,1.82,-2.21,-2.38
1.234,-4.99,-3.54,-4.23,1.73,-1.89,-2.36
1.236,-4.99,-3.54,-4.23,1.64,-1.57,-2.34
1.238,-4.99,-3.54,-4.23,1.6,-1.4,-2.33
1.241,-4.99,-3.54,-4.23,1.54,-1.06,-2.32
1.241,-4.21,-3.94,-2.67,1.54,-1.06,-2.32
1.242,-4.21,-3.94,-2.67,1.48,-0.72,-2.31
1.244,-4.21,-3.94,-2.67,1.42,-0.34,-2.3
1.246,-4.21,-3.94,-2.67,1.39,-0.13,-2.28
1.247,-4.21,-3.94,-2.67,1.32,0.34,-2.21
1.264,-4.21,-3.94,-2.67,1.23,0.87,-2.06
1.264,-4.21,-3.94,-2.67,1.04,2.55,-1.04
1.264,-4.21,-3.94,-2.67,1.07,2.6,-0.92
1.264,-4.21,-3.94,-2.67,1.1,2.62,-0.8
1.265,-4.21,-3.94,-2.67,1.1,2.62,-0.8
1.265,-4.21,-3.94,-2.67,1.1,2.62,-0.8
1.265,-4.21,-3.94,-2.67,1.1,2.62,-0.8
1.265,-2.72,0.92,3.12,1.1,2.62,-0.8
1.266,-2.32,0.67,3.13,1.1,2.62,-0.8
1.266,-2.32,0.67,3.13,1.16,2.59,-0.57
1.266,-2.32,0.67,3.13,1.22,2.52,-0.37
1.268,-2.32,0.67,3.13,1.25,2.46,-0.28
1.271,-2.32,0.67,3.13,1.29,2.31,-0.13
1.271,-1.99,0.49,4.88,1.29,2.31,-0.13
1.272,-1.99,0.49,4.88,1.31,2.11,-0.01
1.274,-1.99,0.49,4.88,1.31,2,0.03
1.279,-1.99,0.49,4.88,1.3,1.74,0.06
1.28,-1.99,0.49,4.88,1.28,1.46,0.05
1.281,-1.99,0.49,4.88,1.25,1.19,0
1.281,0.65,-1.26,3.34,1.25,1.19,0
1.282,0.65,-1.26,3.34,1.24,1.05,-0.04
1.284,0.65,-1.26,3.34,1.22,0.79,-0.14
1.286,0.65,-1.26,3.34,1.2,0.54,-0.25
1.288,0.65,-1.26,3.34,1.2,0.33,-0.38
1.303,0.65,-1.26,3.34,1.21,0.23,-0.44
1.304,0.65,-1.26,3.34,1.39,-0.28,-0.9
1.304,0.65,-1.26,3.34,1.42,-0.31,-0.96
1.304,0.65,-1.26,3.34,1.42,-0.31,-0.96
1.304,0.65,-1.26,3.34,1.42,-0.31,-0.96
1.304,0.65,-1.26,3.34,1.45,-0.33,-1.02
1.305,0.65,-1.26,3.34,1.49,-0.36,-1.07
1.305,1.32,-2.27,1.57,1.49,-0.36,-1.07
1.305,1.42,-2.46,1.76,1.49,-0.36,-1.07
1.305,1.47,-2.57,1.88,1.49,-0.36,-1.07
1.306,1.47,-2.57,1.88,1.52,-0.38,-1.13
1.306,1.47,-2.57,1.88,1.6,-0.44,-1.23
1.308,1.47,-2.57,1.88,1.65,-0.48,-1.3
1.312,1.47,-2.57,1.88,1.68,-0.54,-1.35
1.312,-3.24,-1.94,1.11,1.68,-0.54,-1.35
1.313,-3.24,-1.94,1.11,1.69,-0.58,-1.36
1.314,-3.24,-1.94,1.11,1.71,-0.7,-1.38
1.316,-3.24,-1.94,1.11,1.71,-0.83,-1.38
1.318,-3.24,-1.94,1.11,1.72,-0.9,-1.38
1.321,-3.24,-1.94,1.11,1.71,-1.02,-1.36
1.321,-4.23,-0.89,0.45,1.71,-1.02,-1.36
1.321,-4.23,-0.89,0.45,1.7,-1.14,-1.34
1.324,-4.23,-0.89,0.45,1.68,-1.23,-1.32
1.326,-4.23,-0.89,0.45,1.68,-1.24,-1.32
1.327,-4.23,-0.89,0.45,1.68,-1.23,-1.34
1.343,-4.23,-0.89,0.45,1.68,-1.2,-1.35
1.343,-4.23,-0.89,0.45,1.64,-0.77,-1.2
1.343,-4.23,-0.89,0.45,1.64,-0.77,-1.2
1.343,-4.23,-0.89,0.45,1.64,-0.77,-1.2
1.344,-4.23,-0.89,0.45,1.64,-0.77,-1.2
1.344,-4.23,-0.89,0.45,1.63,-0.71,-1.15
1.344,-4.23,-0.89,0.45,1.61,-0.64,-1.1
1.344,-4.02,-1.27,-2.57,1.61,-0.64,-1.1
1.344,-3.97,-1.4,-2.39,1.61,-0.64,-1.1
1.344,-3.91,-1.51,-2.24,1.61,-0.64,-1.1
1.345,-3.91,-1.51,-2.24,1.56,-0.51,-0.99
1.346,-3.91,-1.51,-2.24,1.48,-0.39,-0.86
1.348,-3.91,-1.51,-2.24,1.44,-0.33,-0.8
1.351,-3.91,-1.51,-2.24,1.32,-0.25,-0.67
1.351,-4.03,-0.88,-2.97,1.32,-0.25,-0.67
1.352,-4.03,-0.88,-2.97,1.18,-0.2,-0.54
1.355,-4.03,-0.88,-2.97,1.03,-0.17,-0.43
1.356,-4.03,-0.88,-2.97,0.95,-0.17,-0.38
1.358,-4.03,-0.88,-2.97,0.78,-0.18,-0.31
1.36,-4.03,-0.88,-2.97,0.62,-0.23,-0.26
1.361,-2.24,-1.24,-2.14,0.62,-0.23,-0.26
1.361,-2.24,-1.24,-2.14,0.55,-0.26,-0.25
1.364,-2.24,-1.24,-2.14,0.4,-0.33,-0.26
1.366,-2.24,-1.24,-2.14,0.28,-0.4,-0.3
1.368,-2.24,-1.24,-2.14,0.17,-0.47,-0.37
1.383,-2.24,-1.24,-2.14,0.13,-0.49,-0.42
1.384,-2.24,-1.24,-2.14,-0.2,-0.5,-1.01
1.384,-2.24,-1.24,-2.14,-0.22,-0.47,-1.07
1.384,-2.24,-1.24,-2.14,-0.24,-0.44,-1.13
1.384,-2.24,-1.24,-2.14,-0.24,-0.44,-1.13
1.384,-2.24,-1.24,-2.14,-0.24,-0.44,-1.13
1.385,-2.24,-1.24,-2.14,-0.24,-0.44,-1.13
1.385,1.96,-2.69,0.23,-0.24,-0.44,-1.13
1.385,2.04,-2.74,0.26,-0.24,-0.44,-1.13
1.385,2.04,-2.74,0.26,-0.26,-0.4,-1.19
1.385,2.04,-2.74,0.26,-0.28,-0.32,-1.29
1.387,2.04,-2.74,0.26,-0.31,-0.23,-1.39
1.391,2.04,-2.74,0.26,-0.32,-0.15,-1.47
1.391,2.93,-2.58,0.63,-0.32,-0.15,-1.47
1.392,2.93,-2.58,0.63,-0.32,-0.11,-1.51
1.396,2.93,-2.58,0.63,-0.32,-0.06,-1.59
1.396,2.93,-2.58,0.63,-0.32,-0.05,-1.66
1.398,2.93,-2.58,0.63,-0.31,-0.06,-1.71
1.401,2.93,-2.58,0.63,-0.29,-0.07,-1.73
1.402,1.86,-1.99,2.1,-0.29,-0.07,-1.73
1.402,1.86,-1.99,2.1,-0.27,-0.09,-1.76
1.404,1.86,-1.99,2.1,-0.24,-0.12,-1.78
1.406,1.86,-1.99,2.1,-0.22,-0.12,-1.78
1.407,1.86,-1.99,2.1,-0.18,-0.14,-1.78
1.422,1.86,-1.99,2.1,-0.13,-0.14,-1.78
1.422,1.86,-1.99,2.1,0.13,-0.1,-1.75
1.423,1.86,-1.99,2.1,0.13,-0.1,-1.75
1.423,1.86,-1.99,2.1,0.13,-0.1,-1.75
1.423,1.86,-1.99,2.1,0.13,-0.1,-1.75
1.423,1.86,-1.99,2.1,0.17,-0.08,-1.74
1.423,1.86,-1.99,2.1,0.21,-0.07,-1.73
1.424,-1.73,0.73,2.38,0.21,-0.07,-1.73
1.424,-1.44,0.62,2.39,0.21,-0.07,-1.73
1.424,-1.44,0.62,2.39,0.29,-0.03,-1.71
1.426,-1.44,0.62,2.39,0.37,0,-1.67
1.427,-1.44,0.62,2.39,0.42,0.03,-1.65
1.431,-1.44,0.62,2.39,0.51,0.08,-1.61
1.431,-2.86,0.79,2.1,0.51,0.08,-1.61
1.431,-2.86,0.79,2.1,0.6,0.13,-1.55
1.434,-2.86,0.79,2.1,0.69,0.2,-1.47
1.436,-2.86,0.79,2.1,0.74,0.23,-1.43
1.438,-2.86,0.79,2.1,0.83,0.28,-1.33
1.44,-2.86,0.79,2.1,0.93,0.34,-1.22
1.441,-4.64,0.46,1.91,0.93,0.34,-1.22
1.442,-4.64,0.46,1.91,1.03,0.4,-1.1
1.443,-4.64,0.46,1.91,1.08,0.42,-1.04
1.446,-4.64,0.46,1.91,1.18,0.48,-0.9
1.448,-4.64,0.46,1.91,1.27,0.53,-0.77
1.463,-4.64,0.46,1.91,1.32,0.56,-0.7
1.463,-4.64,0.46,1.91,1.58,0.63,-0.12
1.463,-4.64,0.46,1.91,1.58,0.63,-0.12
1.463,-4.64,0.46,1.91,1.58,0.63,-0.12
1.464,-4.64,0.46,1.91,1.58,0.6,-0.07
1.464,-4.64,0.46,1.91,1.59,0.57,-0.02
1.464,-4.64,0.46,1.91,1.59,0.57,-0.02
1.464,-4.85,-0.14,0.84,1.59,0.57,-0.02
1.465,-4.73,-0.27,1.07,1.59,0.57,-0.02
1.465,-4.73,-0.27,1.07,1.58,0.49,0.05
1.466,-4.73,-0.27,1.07,1.58,0.43,0.08
1.467,-4.73,-0.27,1.07,1.56,0.31,0.13
1.47,-4.73,-0.27,1.07,1.53,0.16,0.16
1.471,-2.76,-0.92,0.69,1.53,0.16,0.16
1.472,-2.76,-0.92,0.69,1.51,0.09,0.18
1.474,-2.76,-0.92,0.69,1.47,-0.06,0.19
1.476,-2.76,-0.92,0.69,1.43,-0.21,0.18
1.477,-2.76,-0.92,0.69,1.38,-0.32,0.17
1.481,-2.76,-0.92,0.69,1.35,-0.37,0.16
1.481,-1.01,-1.27,0.4,1.35,-0.37,0.16
1.482,-1.01,-1.27,0.4,1.31,-0.46,0.14
1.483,-1.01,-1.27,0.4,1.27,-0.54,0.12
1.485,-1.01,-1.27,0.4,1.23,-0.61,0.11
1.487,-1.01,-1.27,0.4,1.21,-0.64,0.1
1.503,-1.01,-1.27,0.4,1.16,-0.68,0.1
1.504,-1.01,-1.27,0.4,1.04,-0.61,0.09
1.504,-1.01,-1.27,0.4,1.03,-0.57,0.08
1.504,-1.01,-1.27,0.4,1.01,-0.53,0.09
1.504,-1.01,-1.27,0.4,1.01,-0.53,0.09
1.504,-1.01,-1.27,0.4,1.01,-0.53,0.09
1.505,-1.01,-1.27,0.4,0.99,-0.48,0.08
1.505,-0.32,0.34,0.08,0.99,-0.48,0.08
1.505,-0.38,0.27,0.3,0.99,-0.48,0.08
1.505,-0.4,0.24,0.41,0.99,-0.48,0.08
1.505,-0.4,0.24,0.41,0.98,-0.43,0.08
1.506,-0.4,0.24,0.41,0.93,-0.32,0.08
1.508,-0.4,0.24,0.41,0.88,-0.19,0.07
1.512,-0.4,0.24,0.41,0.85,-0.12,0.07
1.513,-0.17,1.4,-0.45,0.85,-0.12,0.07
1.513,-0.17,1.4,-0.45,0.79,0.02,0.05
1.514,-0.17,1.4,-0.45,0.72,0.16,0.04
1.516,-0.17,1.4,-0.45,0.68,0.23,0.03
1.518,-0.17,1.4,-0.45,0.6,0.37,0.01
1.521,-0.17,1.4,-0.45,0.51,0.5,-0.01
1.522,0.11,1.6,-1.76,0.51,0.5,-0.01
1.522,0.11,1.6,-1.76,0.41,0.61,-0.02
1.523,0.11,1.6,-1.76,0.36,0.66,-0.03
1.526,0.11,1.6,-1.76,0.25,0.76,-0.05
1.528,0.11,1.6,-1.76,0.14,0.85,-0.06
1.544,0.11,1.6,-1.76,0.04,0.92,-0.06
1.544,0.11,1.6,-1.76,-0.4,1.15,-0.01
1.545,0.11,1.6,-1.76,-0.4,1.15,-0.01
1.545,0.11,1.6,-1.76,-0.4,1.15,-0.01
1.545,0.11,1.6,-1.76,-0.45,1.18,0.01
1.545,0.11,1.6,-1.76,-0.5,1.2,0.02
1.545,0.11,1.6,-1.76,-0.5,1.2,0.02
1.545,-1.7,0.7,-1.99,-0.5,1.2,0.02
1.545,-1.63,0.71,-2.07,-0.5,1.2,0.02
1.546,-1.6,0.72,-2.13,-0.5,1.2,0.02
1.546,-1.6,0.72,-2.13,-0.59,1.25,0.07
1.546,-1.6,0.72,-2.13,-0.64,1.28,0.09
1.548,-1.6,0.72,-2.13,-0.72,1.33,0.14
1.551,-1.6,0.72,-2.13,-0.79,1.37,0.2
1.551,-1.6,0.72,-2.13,-0.86,1.41,0.26
1.551,-2.69,0.07,-1.1,-0.86,1.41,0.26
1.554,-2.69,0.07,-1.1,-0.88,1.43,0.29
1.556,-2.69,0.07,-1.1,-0.94,1.46,0.35
1.557,-2.69,0.07,-1.1,-0.98,1.47,0.4
1.56,-2.69,0.07,-1.1,-1.01,1.47,0.42
1.561,-2.83,-0.73,0.07,-1.01,1.47,0.42
1.562,-2.83,-0.73,0.07,-1.03,1.46,0.47
1.564,-2.83,-0.73,0.07,-1.06,1.44,0.51
1.566,-2.83,-0.73,0.07,-1.08,1.41,0.54
1.567,-2.83,-0.73,0.07,-1.08,1.39,0.55
1.583,-2.83,-0.73,0.07,-1.09,1.34,0.58
1.583,-2.83,-0.73,0.07,-0.99,1.09,0.63
1.583,-2.83,-0.73,0.07,-0.99,1.09,0.63
1.584,-2.83,-0.73,0.07,-0.97,1.05,0.64
1.584,-2.83,-0.73,0.07,-0.97,1.05,0.64
1.584,-2.83,-0.73,0.07,-0.95,1.02,0.64
1.584,-2.83,-0.73,0.07,-0.95,1.02,0.64
1.584,-1.09,-0.87,3.17,-0.95,1.02,0.64
1.585,-1.11,-0.77,2.94,-0.95,1.02,0.64
1.585,-1.13,-0.72,2.83,-0.95,1.02,0.64
1.585,-1.13,-0.72,2.83,-0.89,0.95,0.63
1.586,-1.13,-0.72,2.83,-0.84,0.88,0.62
1.587,-1.13,-0.72,2.83,-0.78,0.81,0.61
1.591,-1.13,-0.72,2.83,-0.75,0.78,0.6
1.591,-0.33,-0.4,3.64,-0.75,0.78,0.6
1.592,-0.33,-0.4,3.64,-0.69,0.71,0.58
1.596,-0.33,-0.4,3.64,-0.63,0.65,0.56
1.597,-0.33,-0.4,3.64,-0.57,0.6,0.53
1.598,-0.33,-0.4,3.64,-0.54,0.57,0.51
1.6,-0.33,-0.4,3.64,-0.49,0.54,0.47
1.601,0.52,-0.34,3.42,-0.49,0.54,0.47
1.602,0.52,-0.34,3.42,-0.45,0.51,0.43
1.604,0.52,-0.34,3.42,-0.42,0.5,0.41
1.605,0.52,-0.34,3.42,-0.38,0.49,0.36
1.607,0.52,-0.34,3.42,-0.35,0.49,0.32
1.624,0.52,-0.34,3.42,-0.32,0.48,0.28
1.624,0.52,-0.34,3.42,-0.23,0.49,0.17
1.624,0.52,-0.34,3.42,-0.22,0.48,0.16
1.625,0.52,-0.34,3.42,-0.21,0.48,0.15
1.625,0.52,-0.34,3.42,-0.21,0.48,0.15
1.625,0.52,-0.34,3.42,-0.21,0.48,0.15
1.625,0.52,-0.34,3.42,-0.21,0.48,0.15
1.625,0.52,-0.34,3.42,-0.2,0.47,0.14
1.625,0.26,-0.42,2.36,-0.2,0.47,0.14
1.626,0.26,-0.4,2.32,-0.2,0.47,0.14
1.626,0.27,-0.39,2.28,-0.2,0.47,0.14
1.626,0.27,-0.39,2.28,-0.2,0.47,0.13
1.628,0.27,-0.39,2.28,-0.19,0.46,0.13
1.631,0.27,-0.39,2.28,-0.19,0.45,0.12
1.632,0.27,-0.39,2.28,-0.19,0.45,0.12
1.632,0.27,-0.39,2.28,-0.18,0.44,0.12
1.633,0.27,-0.39,2.28,-0.18,0.43,0.12
1.636,0.27,-0.39,2.28,-0.18,0.42,0.12
1.638,0.27,-0.39,2.28,-0.19,0.41,0.12
1.641,0.27,-0.39,2.28,-0.21,0.39,0.1
1.642,0.57,-1.15,1.3,-0.21,0.39,0.1
1.646,0.57,-1.15,1.3,-0.21,0.39,0.05
1.646,0.57,-1.15,1.3,-0.22,0.41,0
1.647,0.57,-1.15,1.3,-0.25,0.44,0.01
1.648,0.57,-1.15,1.3,-0.26,0.43,0.01
1.664,0.57,-1.15,1.3,-0.28,0.4,0.01
1.666,0.57,-1.15,1.3,-0.39,0.4,0.05
1.666,0.57,-1.15,1.3,-0.39,0.4,0.05
1.667,0.57,-1.15,1.3,-0.41,0.4,0.05
1.667,0.57,-1.15,1.3,-0.41,0.4,0.05
1.668,0.57,-1.15,1.3,-0.41,0.4,0.05
1.669,0.57,-1.15,1.3,-0.42,0.41,0.06
1.669,-1.17,-0.42,0.67,-0.42,0.41,0.06
1.67,-1.13,-0.39,0.58,-0.42,0.41,0.06
1.67,-1.13,-0.39,0.58,-0.46,0.43,0.05
1.671,-1.13,-0.39,0.58,-0.49,0.46,0.04
1.672,-1.13,-0.39,0.58,-0.53,0.47,0.01
1.672,-1.13,-0.39,0.58,-0.55,0.47,-0.01
1.673,0.44,-2,0.79,-0.55,0.47,-0.01
1.673,0.44,-2,0.79,-0.57,0.47,-0.05
1.674,0.44,-2,0.79,-0.59,0.47,-0.09
1.676,0.44,-2,0.79,-0.61,0.48,-0.11
1.678,0.44,-2,0.79,-0.62,0.5,-0.11
1.68,0.44,-2,0.79,-0.63,0.53,-0.11
1.684,-1.46,-0.69,1.58,-0.63,0.53,-0.11
1.684,-1.46,-0.69,1.58,-0.65,0.56,-0.09
1.684,-1.46,-0.69,1.58,-0.65,0.61,-0.06
1.686,-1.46,-0.69,1.58,-0.66,0.63,-0.04
1.688,-1.46,-0.69,1.58,-0.66,0.66,-0.01
1.704,-1.46,-0.69,1.58,-0.67,0.69,0.01
1.705,-1.46,-0.69,1.58,-0.69,0.75,0.08
1.705,-1.46,-0.69,1.58,-0.69,0.75,0.08
1.705,-1.46,-0.69,1.58,-0.69,0.75,0.08
1.706,-1.46,-0.69,1.58,-0.69,0.75,0.08
1.706,-1.46,-0.69,1.58,-0.7,0.76,0.09
1.706,-1.46,-0.69,1.58,-0.7,0.76,0.09
1.706,-1.15,-0.57,1.8,-0.7,0.76,0.09
1.706,-1.09,-0.5,1.65,-0.7,0.76,0.09
1.707,-1.09,-0.5,1.65,-0.71,0.76,0.08
1.707,-1.09,-0.5,1.65,-0.71,0.77,0.07
1.708,-1.09,-0.5,1.65,-0.71,0.77,0.06
1.71,-1.09,-0.5,1.65,-0.7,0.77,0.05
1.711,-1.06,-0.47,1.57,-0.7,0.77,0.05
1.712,-1.06,-0.47,1.57,-0.69,0.76,0.03
1.715,-1.06,-0.47,1.57,-0.69,0.75,0.02
1.716,-1.06,-0.47,1.57,-0.67,0.74,0
1.718,-1.06,-0.47,1.57,-0.66,0.73,-0.02
1.721,-1.06,-0.47,1.57,-0.64,0.7,-0.04
1.721,-0.3,-0.87,2.4,-0.64,0.7,-0.04
1.722,-0.3,-0.87,2.4,-0.63,0.69,-0.05
1.724,-0.3,-0.87,2.4,-0.6,0.66,-0.06
1.726,-0.3,-0.87,2.4,-0.58,0.62,-0.07
1.728,-0.3,-0.87,2.4,-0.56,0.59,-0.08
1.747,-0.3,-0.87,2.4,-0.54,0.57,-0.09
1.748,-0.3,-0.87,2.4,-0.43,0.4,-0.1
1.748,-0.3,-0.87,2.4,-0.41,0.38,-0.09
1.749,-0.3,-0.87,2.4,-0.4,0.35,-0.08
1.749,-0.3,-0.87,2.4,-0.4,0.35,-0.08
1.749,-0.3,-0.87,2.4,-0.4,0.35,-0.08
1.749,-0.3,-0.87,2.4,-0.4,0.35,-0.08
1.75,-0.3,-0.87,2.4,-0.38,0.33,-0.08
1.75,-1.71,-0.4,2.74,-0.38,0.33,-0.08
1.75,-1.67,-0.37,2.68,-0.38,0.33,-0.08
1.75,-1.64,-0.35,2.62,-0.38,0.33,-0.08
1.75,-1.64,-0.35,2.62,-0.36,0.29,-0.06
1.751,-1.64,-0.35,2.62,-0.33,0.26,-0.04
1.752,-1.64,-0.35,2.62,-0.3,0.25,-0.03
1.752,-1.64,-0.35,2.62,-0.29,0.24,-0.01
1.752,-2,-0.74,2.25,-0.29,0.24,-0.01
1.754,-2,-0.74,2.25,-0.28,0.23,0
1.756,-2,-0.74,2.25,-0.26,0.21,0.02
1.758,-2,-0.74,2.25,-0.25,0.21,0.03
1.761,-2,-0.74,2.25,-0.23,0.2,0.05
1.762,-1.78,-1.3,1.91,-0.23,0.2,0.05
1.765,-1.78,-1.3,1.91,-0.22,0.19,0.07
1.765,-1.78,-1.3,1.91,-0.21,0.18,0.09
1.766,-1.78,-1.3,1.91,-0.21,0.18,0.1
1.767,-1.78,-1.3,1.91,-0.2,0.18,0.12
1.784,-1.78,-1.3,1.91,-0.19,0.18,0.14
1.784,-1.78,-1.3,1.91,-0.17,0.15,0.22
1.784,-1.78,-1.3,1.91,-0.17,0.15,0.22
1.785,-1.78,-1.3,1.91,-0.17,0.15,0.22
1.785,-1.78,-1.3,1.91,-0.17,0.15,0.22
1.785,-1.78,-1.3,1.91,-0.17,0.15,0.23
1.785,-1.78,-1.3,1.91,-0.17,0.14,0.23
1.786,-1.63,-0.96,1.9,-0.17,0.14,0.23
1.786,-1.63,-0.96,1.9,-0.17,0.14,0.23
1.786,-1.63,-0.93,1.84,-0.17,0.14,0.23
1.786,-1.63,-0.93,1.84,-0.16,0.14,0.25
1.787,-1.63,-0.93,1.84,-0.15,0.13,0.26
1.787,-1.63,-0.93,1.84,-0.15,0.13,0.27
1.797,-1.63,-0.93,1.84,-0.13,0.12,0.28
1.797,-1.63,-0.93,1.84,-0.12,0.12,0.28
1.797,-1.12,-0.84,2.04,-0.12,0.12,0.28
1.798,-1.12,-0.84,2.04,-0.12,0.11,0.28
1.798,-1.12,-0.84,2.04,-0.11,0.11,0.29
1.798,-1.12,-0.84,2.04,-0.1,0.11,0.28
1.803,-1.12,-0.84,2.04,-0.09,0.11,0.28
1.803,-0.59,-0.85,2.07,-0.09,0.11,0.28
1.803,-0.59,-0.85,2.07,-0.08,0.11,0.27
1.805,-0.59,-0.85,2.07,-0.07,0.1,0.26
1.806,-0.59,-0.85,2.07,-0.06,0.1,0.25
1.807,-0.59,-0.85,2.07,-0.05,0.1,0.23
1.823,-0.59,-0.85,2.07,-0.05,0.09,0.23
1.823,-0.59,-0.85,2.07,-0.03,0.09,0.16
1.824,-0.59,-0.85,2.07,-0.03,0.09,0.16
1.824,-0.59,-0.85,2.07,-0.03,0.09,0.16
1.824,-0.59,-0.85,2.07,-0.03,0.1,0.15
1.824,-0.59,-0.85,2.07,-0.03,0.1,0.15
1.825,-0.59,-0.85,2.07,-0.03,0.1,0.15
1.825,-0.5,-0.84,1.6,-0.03,0.1,0.15
1.825,-0.51,-0.82,1.57,-0.03,0.1,0.15
1.825,-0.51,-0.82,1.57,-0.03,0.1,0.14
1.826,-0.51,-0.82,1.57,-0.04,0.09,0.13
1.828,-0.51,-0.82,1.57,-0.05,0.09,0.12
1.831,-0.51,-0.82,1.57,-0.05,0.08,0.11
1.831,-0.59,-0.78,1.5,-0.05,0.08,0.11
1.832,-0.59,-0.78,1.5,-0.06,0.08,0.11
1.834,-0.59,-0.78,1.5,-0.06,0.08,0.1
1.837,-0.59,-0.78,1.5,-0.06,0.07,0.09
1.838,-0.59,-0.78,1.5,-0.06,0.06,0.09
1.841,-0.59,-0.78,1.5,-0.06,0.06,0.08
1.842,-0.59,-0.78,1.5,-0.05,0.05,0.07
1.842,-0.53,-0.65,1.87,-0.05,0.05,0.07
1.846,-0.53,-0.65,1.87,-0.04,0.06,0.06
1.848,-0.53,-0.65,1.87,-0.04,0.05,0.06
1.848,-0.53,-0.65,1.87,-0.03,0.06,0.05
1.865,-0.53,-0.65,1.87,-0.02,0.07,0.04
1.865,-0.53,-0.65,1.87,0.03,0.16,0.02
1.865,-0.53,-0.65,1.87,0.03,0.16,0.02
1.866,-0.53,-0.65,1.87,0.03,0.17,0.01
1.866,-0.53,-0.65,1.87,0.03,0.17,0.01
1.866,-0.53,-0.65,1.87,0.04,0.18,0.02
1.866,-0.53,-0.65,1.87,0.04,0.18,0.02
1.867,-0.53,-0.65,1.87,0.04,0.19,0.02
1.867,-0.57,-0.8,2,0.04,0.19,0.02
1.867,-0.57,-0.8,1.99,0.04,0.19,0.02
1.867,-0.56,-0.79,1.98,0.04,0.19,0.02
1.868,-0.56,-0.79,1.98,0.05,0.2,0.02
1.868,-0.56,-0.79,1.98,0.05,0.21,0.02
1.872,-0.56,-0.79,1.98,0.06,0.23,0.02
1.872,-0.56,-0.79,1.98,0.06,0.25,0.03
1.873,-0.87,-0.92,1.68,0.06,0.25,0.03
1.873,-0.87,-0.92,1.68,0.06,0.27,0.04
1.88,-0.87,-0.92,1.68,0.05,0.28,0.04
1.881,-0.87,-0.92,1.68,0.05,0.29,0.06
1.882,-0.87,-0.92,1.68,0.06,0.31,0.07
1.882,-1.36,-0.96,1.39,0.06,0.31,0.07
1.888,-1.36,-0.96,1.39,0.05,0.32,0.09
1.888,-1.36,-0.96,1.39,0.05,0.32,0.09
1.888,-1.36,-0.96,1.39,0.05,0.34,0.11
1.889,-1.36,-0.96,1.39,0.05,0.34,0.13
1.904,-1.36,-0.96,1.39,0.05,0.35,0.14
1.905,-1.36,-0.96,1.39,0.05,0.33,0.19
1.905,-1.36,-0.96,1.39,0.05,0.33,0.19
1.905,-1.36,-0.96,1.39,0.05,0.33,0.19
1.905,-1.36,-0.96,1.39,0.05,0.33,0.19
1.905,-1.36,-0.96,1.39,0.05,0.32,0.19
1.906,-1.36,-0.96,1.39,0.05,0.31,0.19
1.906,-1.36,-0.96,1.39,0.05,0.3,0.2
1.906,-1.42,-0.72,1.2,0.05,0.3,0.2
1.906,-1.4,-0.71,1.17,0.05,0.3,0.2
1.906,-1.4,-0.71,1.17,0.05,0.29,0.2
1.908,-1.4,-0.71,1.17,0.06,0.26,0.2
1.913,-1.4,-0.71,1.17,0.06,0.24,0.19
1.914,-0.94,-0.55,1.26,0.06,0.24,0.19
1.914,-0.94,-0.55,1.26,0.06,0.23,0.19
1.914,-0.94,-0.55,1.26,0.06,0.2,0.18
1.916,-0.94,-0.55,1.26,0.07,0.18,0.17
1.918,-0.94,-0.55,1.26,0.08,0.15,0.16
1.92,-0.94,-0.55,1.26,0.09,0.14,0.15
1.921,-0.6,-0.48,1.33,0.09,0.14,0.15
1.922,-0.6,-0.48,1.33,0.09,0.12,0.13
1.923,-0.6,-0.48,1.33,0.1,0.09,0.12
1.926,-0.6,-0.48,1.33,0.11,0.08,0.1
1.928,-0.6,-0.48,1.33,0.11,0.06,0.1
1.944,-0.6,-0.48,1.33,0.12,0.05,0.08
1.945,-0.6,-0.48,1.33,0.13,0.02,0.03
1.945,-0.6,-0.48,1.33,0.13,0.02,0.03
1.945,-0.6,-0.48,1.33,0.13,0.01,0.03
1.945,-0.6,-0.48,1.33,0.12,0.01,0.02
1.946,-0.6,-0.48,1.33,0.12,0.01,0.02
1.946,-0.6,-0.48,1.33,0.12,0.01,0.02
1.946,-0.63,-0.5,0.76,0.12,0.01,0.02
1.946,-0.62,-0.5,0.77,0.12,0.01,0.02
1.946,-0.62,-0.5,0.77,0.12,0.01,0.01
1.947,-0.62,-0.5,0.77,0.11,0.01,0
1.948,-0.62,-0.5,0.77,0.09,0.01,-0.01
1.951,-0.62,-0.5,0.77,0.08,0.02,-0.02
1.951,-0.63,-0.46,0.33,0.08,0.02,-0.02
1.951,-0.63,-0.46,0.33,0.06,0.02,-0.03
1.954,-0.63,-0.46,0.33,0.04,0.03,-0.04
1.955,-0.63,-0.46,0.33,0.02,0.04,-0.04
1.958,-0.63,-0.46,0.33,0.01,0.04,-0.04
1.961,-0.63,-0.46,0.33,-0.02,0.05,-0.05
1.961,-0.87,-0.51,0.03,-0.02,0.05,-0.05
1.962,-0.87,-0.51,0.03,-0.04,0.06,-0.05
1.964,-0.87,-0.51,0.03,-0.06,0.06,-0.05
1.966,-0.87,-0.51,0.03,-0.08,0.07,-0.05
1.968,-0.87,-0.51,0.03,-0.1,0.08,-0.05
1.983,-0.87,-0.51,0.03,-0.12,0.08,-0.04
1.983,-0.87,-0.51,0.03,-0.18,0.09,-0.04
1.984,-0.87,-0.51,0.03,-0.19,0.1,-0.04
1.984,-0.87,-0.51,0.03,-0.19,0.1,-0.04
1.984,-0.87,-0.51,0.03,-0.19,0.1,-0.04
1.984,-0.87,-0.51,0.03,-0.19,0.1,-0.04
1.984,-0.87,-0.51,0.03,-0.19,0.1,-0.04
1.985,-1.04,-0.61,0.62,-0.19,0.1,-0.04
1.985,-1.03,-0.6,0.6,-0.19,0.1,-0.04
1.985,-1.02,-0.59,0.58,-0.19,0.1,-0.04
1.985,-1.02,-0.59,0.58,-0.2,0.1,-0.04
1.986,-1.02,-0.59,0.58,-0.2,0.1,-0.04
1.988,-1.02,-0.59,0.58,-0.2,0.11,-0.04
1.991,-1.02,-0.59,0.58,-0.2,0.11,-0.04
1.991,-0.96,-0.57,1.11,-0.2,0.11,-0.04
1.992,-0.96,-0.57,1.11,-0.19,0.12,-0.04
1.999,-0.96,-0.57,1.11,-0.19,0.12,-0.04
2.003,-0.96,-0.57,1.11,-0.18,0.12,-0.04
2.003,-0.96,-0.57,1.11,-0.17,0.13,-0.04
2.003,-0.96,-0.57,1.11,-0.16,0.13,-0.04
2.003,-0.93,-0.6,1.48,-0.16,0.13,-0.04
2.004,-0.93,-0.6,1.48,-0.16,0.13,-0.04
2.004,-0.93,-0.6,1.48,-0.15,0.13,-0.04
2.006,-0.93,-0.6,1.48,-0.13,0.13,-0.04
2.009,-0.93,-0.6,1.48,-0.13,0.14,-0.03
2.024,-0.93,-0.6,1.48,-0.11,0.13,-0.03
2.025,-0.93,-0.6,1.48,-0.06,0.13,-0.02
2.025,-0.93,-0.6,1.48,-0.06,0.13,-0.02
2.025,-0.93,-0.6,1.48,-0.05,0.12,-0.02
2.025,-0.93,-0.6,1.48,-0.05,0.12,-0.02
2.025,-0.93,-0.6,1.48,-0.05,0.12,-0.02
2.025,-0.93,-0.6,1.48,-0.05,0.12,-0.01
2.026,-1.15,-0.69,1.73,-0.05,0.12,-0.01
2.026,-1.14,-0.68,1.71,-0.05,0.12,-0.01
2.026,-1.12,-0.67,1.7,-0.05,0.12,-0.01
2.026,-1.12,-0.67,1.7,-0.03,0.12,-0.01
2.026,-1.12,-0.67,1.7,-0.02,0.11,0
2.028,-1.12,-0.67,1.7,-0.01,0.1,0
2.032,-1.12,-0.67,1.7,0,0.1,0.01
2.032,-1.15,-0.7,1.5,0,0.1,0.01
2.033,-1.15,-0.7,1.5,0.01,0.09,0.01
2.034,-1.15,-0.7,1.5,0.02,0.08,0.02
2.036,-1.15,-0.7,1.5,0.03,0.07,0.02
2.038,-1.15,-0.7,1.5,0.04,0.06,0.02
2.041,-1.15,-0.7,1.5,0.04,0.05,0.03
2.041,-1.09,-0.65,1.23,0.04,0.05,0.03
2.042,-1.09,-0.65,1.23,0.05,0.03,0.03
2.044,-1.09,-0.65,1.23,0.05,0.02,0.03
2.046,-1.09,-0.65,1.23,0.05,0.01,0.03
2.048,-1.09,-0.65,1.23,0.06,-0.01,0.03
2.064,-0.78,-0.45,0.86,0.06,-0.01,0.03
2.064,-0.37,-0.13,0.36,0.06,-0.01,0.03
2.065,-0.37,-0.13,0.36,0.06,-0.02,0.03
2.065,-0.37,-0.13,0.36,0.09,-0.06,0.02
2.065,-0.37,-0.13,0.36,0.09,-0.06,0.02
2.066,-0.37,-0.13,0.36,0.09,-0.06,0.02
2.066,-0.37,-0.13,0.36,0.09,-0.06,0.01
2.066,-0.37,-0.13,0.36,0.09,-0.06,0.01
2.066,-0.37,-0.13,0.36,0.09,-0.06,0.01
2.066,-0.37,-0.13,0.36,0.09,-0.07,0.01
2.066,-0.37,-0.13,0.36,0.09,-0.06,0.01
2.068,-0.37,-0.13,0.36,0.09,-0.06,0.01
2.071,-0.37,-0.13,0.36,0.09,-0.06,0.01
2.071,0.08,-0.06,0.09,0.09,-0.06,0.01
2.071,0.08,-0.06,0.09,0.09,-0.04,0.01
2.074,0.08,-0.06,0.09,0.09,-0.04,0.01
2.076,0.08,-0.06,0.09,0.08,-0.03,0
2.078,0.08,-0.06,0.09,0.08,-0.01,0
2.082,0.08,-0.06,0.09,0.07,0.01,0
2.083,0.02,-0.11,0.06,0.07,0.01,0
2.083,0.02,-0.11,0.06,0.07,0.01,0.01
2.084,0.02,-0.11,0.06,0.06,0.04,0.01
2.086,0.02,-0.11,0.06,0.05,0.06,0.01
2.088,0.02,-0.11,0.06,0.04,0.08,0.02
2.104,0.02,-0.11,0.06,0.04,0.09,0.02
2.105,0.02,-0.11,0.06,-0.02,0.16,0.05
2.105,0.02,-0.11,0.06,-0.03,0.16,0.05
2.105,0.02,-0.11,0.06,-0.04,0.16,0.05
2.106,0.02,-0.11,0.06,-0.04,0.16,0.05
2.106,0.02,-0.11,0.06,-0.04,0.16,0.05
