time,ax,ay,az,wx,wy,wz
0.001,0.03,0.01,0.18,-0.01,0,0
0.001,0.03,0.01,0.18,0,-0.01,0
0.002,0.03,0.01,0.18,0,0,0
0.002,0.03,0.01,0.18,-0.01,-0.01,0
0.002,0.02,0.01,0.19,-0.01,-0.01,0
0.003,0.02,0.01,0.19,0,-0.01,0
0.005,0.02,0.01,0.19,0,-0.01,0
0.007,0.02,0.01,0.19,0,-0.01,0
0.009,0.02,0.01,0.19,0,-0.01,0
0.026,0.02,0.01,0.19,0,-0.01,0
0.026,0.02,0.01,0.19,0,0,0
0.026,0.02,0.01,0.19,0,0,0
0.026,0.02,0.01,0.19,0,0,0
0.027,0.02,0.01,0.19,0,0,0
0.027,0.02,0.01,0.19,0,0,0
0.027,0.02,0.01,0.19,0,0,0
0.027,0.02,0.01,0.22,0,0,0
0.027,0.02,0.01,0.22,0,0,0
0.027,0.02,0.01,0.22,0,0,0
0.028,0.02,0.01,0.22,0,0,0
0.034,0.02,0.01,0.22,0,0,0
0.035,0.02,0.01,0.22,0,0,0
0.035,0.02,0.01,0.22,0,0,0
0.035,0.02,0.02,0.22,0,0,0
0.035,0.02,0.02,0.22,0,0,0
0.037,0.02,0.02,0.22,0,0,0
0.039,0.02,0.02,0.22,0,0,0
0.042,0.02,0.02,0.22,0,0,0
0.042,0.02,0.02,0.23,0,0,0
0.044,0.02,0.02,0.23,0,0,0
0.045,0.02,0.02,0.23,0,0,0
0.047,0.02,0.02,0.23,0.01,0.01,0
0.049,0.02,0.02,0.23,0,0,0
0.068,0.02,0.02,0.23,0,0,0
0.068,0.02,0.02,0.23,0,0,0
0.068,0.02,0.02,0.23,0,0,0
0.068,0.02,0.02,0.23,0,0,0
0.069,0.02,0.02,0.23,0,0,0
0.069,0.02,0.02,0.23,0,0,0
0.069,0.02,0.02,0.23,0,0,0
0.069,0.02,0.01,0.23,0,0,0
0.069,0.02,0.01,0.23,0,0,0
0.07,0.02,0.01,0.23,0,0,0
0.07,0.02,0.01,0.23,0,0,0
0.07,0.02,0.01,0.23,0,0,0
0.073,0.02,0.01,0.23,0,0,0
0.073,0.02,0.01,0.23,0,0,0
0.073,0.02,0.01,0.23,0,0,0
0.075,0.02,0.01,0.23,0,0,0
0.078,0.02,0.01,0.23,0,-0.01,0
0.08,0.02,0.01,0.23,0,0,0
0.083,0.02,0.01,0.23,0,0,0
0.083,0.02,0.01,0.22,0,0,0
0.084,0.02,0.01,0.22,0,0,0
0.085,0.02,0.01,0.22,0,0,0
0.087,0.02,0.01,0.22,0,0,0
0.089,0.02,0.01,0.22,0,0,0
0.105,0.02,0.01,0.22,0,0,0
0.105,0.02,0.01,0.22,0,0,0
0.105,0.02,0.01,0.22,0,0,0
0.105,0.02,0.01,0.22,0,0,0
0.106,0.02,0.01,0.22,0,0,0
0.106,0.02,0.01,0.22,0,0,0
0.106,0.02,0.01,0.22,0,0,0
0.106,0.01,0.01,0.22,0,0,0
0.106,0.01,0.01,0.22,0,0,0
0.107,0.01,0.01,0.22,0,0,0
0.107,0.01,0.01,0.22,0,0,0
0.109,0.01,0.01,0.22,0,0,0
0.112,0.01,0.01,0.22,0,0,0
0.113,0.01,0.01,0.22,0,0,0
0.113,0.01,0.01,0.22,0,0.01,0
0.115,0.01,0.01,0.22,0,0,0
0.117,0.01,0.01,0.22,0,0,0
0.119,0.01,0.01,0.22,0,0.01,0
0.122,0.01,0.01,0.22,0,0.01,0
0.122,0.01,0.01,0.22,0,0.01,0
0.123,0.01,0.01,0.22,0,0.01,0
0.125,0.01,0.01,0.22,0,0.01,0
0.127,0.01,0.01,0.22,0,0.01,0
0.129,0.01,0.01,0.22,0,0.01,0
0.151,0.01,0.01,0.22,0,0.01,0
0.151,0.01,0.01,0.22,0,0,0
0.152,0.01,0.01,0.22,0,0,0
0.152,0.01,0.01,0.22,0.01,0,0
0.152,0.01,0.01,0.22,0,0,0
0.152,0.01,0.01,0.22,0,0,0
0.152,0.01,0.01,0.22,0,0,0
0.152,0.01,0.01,0.22,0,0,0
0.153,0.01,0.01,0.21,0,0,0
0.153,0.01,0.01,0.21,0,0,0
0.153,0.01,0.01,0.21,0,0,0
0.153,0.01,0.01,0.21,0,0,0
0.154,0.01,0.01,0.21,0,0,0
0.154,0.01,0.01,0.21,0,0,0
0.154,0.01,0.01,0.21,0,0,0
0.154,0.01,0.01,0.21,0,0,0
0.155,0.01,0.01,0.21,0,0,0
0.157,0.01,0.01,0.21,0,0,0
0.16,0.01,0.01,0.21,0,-0.01,0
0.163,0.01,0.01,0.21,-0.01,0,0
0.163,0.01,0.01,0.2,-0.01,0,0
0.163,0.01,0.01,0.2,0,-0.01,0
0.166,0.01,0.01,0.2,0,-0.01,0
0.167,0.01,0.01,0.2,0,0,0
0.169,0.01,0.01,0.2,0,-0.01,0
0.186,0.01,0.01,0.2,0,-0.01,0
0.186,0.01,0.01,0.2,0,0,0
0.186,0.01,0.01,0.2,0,0,0
0.187,0.01,0.01,0.2,0,0,0
0.187,0.01,0.01,0.2,0,0,0
0.187,0.01,0.01,0.2,0,0,0
0.187,0.01,0.01,0.2,0,0,0
0.187,0.01,0.01,0.2,0,0,0
0.187,0.02,0.01,0.21,0,0,0
0.188,0.02,0.01,0.21,0,0,0
0.188,0.02,0.01,0.21,0,0,0
0.188,0.02,0.01,0.21,0,0,0
0.189,0.02,0.01,0.21,0,0,0
0.195,0.02,0.01,0.21,0,0,0
0.195,0.02,0.01,0.21,0,0,0
0.196,0.02,0.01,0.23,0,0,0
0.196,0.02,0.01,0.23,0,0,0
0.198,0.02,0.01,0.23,0,0,0
0.199,0.02,0.01,0.23,0,0,0
0.203,0.02,0.01,0.23,0,0,0
0.203,0.02,0.01,0.23,0,0,0
0.203,0.02,0.01,0.24,0,0,0
0.205,0.02,0.01,0.24,0,0,0
0.207,0.02,0.01,0.24,0,0,0
0.209,0.02,0.01,0.24,0,0,0
0.224,0.02,0.01,0.24,0,0,0
0.224,0.02,0.01,0.24,0,0,0
0.224,0.02,0.01,0.24,0,0,0
0.225,0.02,0.01,0.24,0,0,0
0.225,0.02,0.01,0.24,0,0,0
0.225,0.02,0.01,0.24,0,0,0
0.225,0.02,0.01,0.24,0,0,0
0.225,0.01,0.01,0.23,0,0,0
0.226,0.01,0.01,0.23,0,0,0
0.227,0.01,0.01,0.23,0,0,0
0.227,0.01,0.01,0.23,0,0,0
0.23,0.01,0.01,0.23,0,0,0
0.233,0.01,0.01,0.23,0,0,0
0.233,0.01,0.01,0.23,0,0,0
0.233,0.01,0.01,0.23,0,0,0
0.236,0.01,0.01,0.23,0,0,0
0.237,0.01,0.01,0.23,0,0,0
0.24,0.01,0.01,0.23,0,0,0
0.242,0.01,0.01,0.23,0,0,0
0.242,0.01,0.01,0.22,0,0,0
0.244,0.01,0.01,0.22,0,0,0
0.245,0.01,0.01,0.22,0,0,0
0.247,0.01,0.01,0.22,0,0,0
0.249,0.01,0.01,0.22,0,0,0
0.271,0.01,0.01,0.22,0,0,0
0.272,0.01,0.01,0.22,0,0,0
0.272,0.01,0.01,0.22,0,0,0
0.272,0.01,0.01,0.22,0,0,0
0.272,0.01,0.01,0.22,0,0,0
0.273,0.01,0.01,0.22,0,0,0
0.273,0.01,0.01,0.22,0,0,0
0.273,0.01,0.01,0.24,0,0,0
0.273,0.01,0.01,0.24,0,0,0
0.274,0.01,0.01,0.24,0,0,0
0.274,0.01,0.01,0.24,0,0,0
0.274,0.01,0.01,0.24,0,0,0
0.274,0.01,0.01,0.24,0,0,0
0.274,0.02,0.01,0.24,0,0,0
0.274,0.02,0.01,0.24,0,0,0
0.276,0.02,0.01,0.24,0,0,0
0.277,0.02,0.01,0.24,0,0,0
0.28,0.02,0.01,0.24,0,0,0
0.283,0.02,0.01,0.24,0,0,0
0.283,0.02,0.01,0.24,0,0,0
0.283,0.02,0.01,0.24,0,0,0
0.285,0.02,0.01,0.24,0,0,0
0.287,0.02,0.01,0.24,0,0,0
0.289,0.02,0.01,0.24,0,0,0
0.305,0.02,0.01,0.24,0,0,0
0.305,0.02,0.01,0.24,0,0,0
0.305,0.02,0.01,0.24,0,0,0
0.306,0.02,0.01,0.24,0,0,0
0.306,0.02,0.01,0.24,0,0,0
0.306,0.02,0.01,0.24,0,0,0
0.306,0.02,0.01,0.24,0,0,0
0.306,0.02,0.01,0.23,0,0,0
0.306,0.02,0.01,0.23,0,0,0
0.306,0.02,0.01,0.23,0,0,0
0.307,0.02,0.01,0.23,0,0,0
0.307,0.02,0.01,0.23,0,0,0
0.309,0.02,0.01,0.23,0,0,0
0.314,0.02,0.01,0.23,0,0,0
0.315,0.02,0.01,0.23,0,0,0
0.315,0.02,0.01,0.21,0,0,0
0.315,0.02,0.01,0.21,0,0,0
0.317,0.02,0.01,0.21,0,0,0
0.319,0.02,0.01,0.21,0,0,0
0.322,0.02,0.01,0.21,0,0,0
0.323,0.03,0.01,0.2,0,0,0
0.323,0.03,0.01,0.2,0,0,0
0.325,0.03,0.01,0.2,0,0,0
0.327,0.03,0.01,0.2,0,0,0
0.329,0.03,0.01,0.2,0,0,0
0.351,0.03,0.01,0.2,0,0,0
0.351,0.03,0.01,0.2,0,0,0
0.351,0.03,0.01,0.2,0,0,0
0.352,0.03,0.01,0.2,0,0,0
0.352,0.03,0.01,0.2,0,0,0
0.352,0.03,0.01,0.2,0,0,0
0.352,0.03,0.01,0.2,0,0,0
0.352,0.01,0.01,0.24,0,0,0
0.353,0.01,0.01,0.24,0,0,0
0.353,0.01,0.01,0.24,0,0,0
0.353,0.01,0.01,0.24,0,0,0
0.353,0.01,0.01,0.24,0,0,0
0.353,0.01,0.01,0.24,0,0,0
0.354,0.01,0.01,0.24,0,0,0
0.354,0.01,0.01,0.24,0,0,0
0.357,0.01,0.01,0.24,0,0,0
0.357,0.01,0.01,0.24,0,0,0
0.357,0.01,0.01,0.24,0,0,0
0.359,0.01,0.01,0.24,0,0,0
0.363,0.01,0.01,0.24,0,0,0
0.363,0.01,0.01,0.24,0,0,0
0.364,0.01,0.01,0.24,0,0,0
0.365,0.01,0.01,0.24,0,0,0
0.368,0.01,0.01,0.24,0,0,0
0.369,0.01,0.01,0.24,0,0,0
0.385,0.01,0.01,0.24,0,0,0
0.386,0.01,0.01,0.24,0,0,0
0.386,0.01,0.01,0.24,0,0,0
0.386,0.01,0.01,0.24,0,0,0
0.386,0.01,0.01,0.24,0,0,0
0.387,0.01,0.01,0.24,0,0,0
0.387,0.01,0.01,0.24,0,0,0
0.387,0.01,0.01,0.24,0,0,0
0.387,0,0.01,0.24,0,0,0
0.387,0,0.01,0.24,0,0,0
0.388,0,0.01,0.24,0,0,0
0.389,0,0.01,0.24,0,0,0
0.392,0,0.01,0.24,0,0,0
0.392,0.01,0.01,0.23,0,0,0
0.393,0.01,0.01,0.23,0,0,0
0.395,0.01,0.01,0.23,0,0,0
0.397,0.01,0.01,0.23,0,0,0
0.399,0.01,0.01,0.23,0,0,0
0.402,0.01,0.01,0.23,0,0,0
0.402,0.01,0.01,0.23,0,0,0
0.403,0.01,0.01,0.23,0,0,0
0.405,0.01,0.01,0.23,0,0,0
0.407,0.01,0.01,0.23,0,0,0
0.409,0.01,0.01,0.23,0,0,0
0.425,0.01,0.01,0.23,0,0,0
0.425,0.01,0.01,0.23,0,0,0
0.425,0.01,0.01,0.23,0,0,0
0.426,0.01,0.01,0.23,0,0,0
0.426,0.01,0.01,0.23,0,0,0
0.426,0.01,0.01,0.23,0,0,0
0.426,0.01,0.01,0.23,0,0,0
0.427,0.02,0.01,0.21,0,0,0
0.427,0.02,0.01,0.21,0,0,0
0.427,0.02,0.01,0.21,0,0,0
0.427,0.02,0.01,0.21,0,0,0
0.427,0.02,0.01,0.21,0,0,0
0.429,0.02,0.01,0.21,0,0,0
0.433,0.02,0.01,0.21,0,0,0
0.433,0.02,0.01,0.2,0,0,0
0.434,0.02,0.01,0.2,0,0,0
0.435,0.02,0.01,0.2,0,0,0
0.437,0.02,0.01,0.2,0,0,0
0.439,0.02,0.01,0.2,0,0,0
0.442,0.02,0.01,0.2,0,0,0
0.442,0.02,0.01,0.2,0,0,0
0.447,0.02,0.01,0.2,0,0,0
0.447,0.02,0.01,0.2,0,0,0
0.448,0.02,0.01,0.2,0,0,0
0.45,0.02,0.01,0.2,0,0,0
0.464,0.02,0.01,0.2,0,0,0
0.465,0.02,0.01,0.2,0,0,0
0.465,0.02,0.01,0.2,0,0,0
0.465,0.02,0.01,0.2,0,0,0
0.465,0.02,0.01,0.2,0,0,0
0.465,0.02,0.01,0.2,0,0,0
0.466,0.02,0.01,0.2,0,0,0
0.466,0.01,0.02,0.22,0,0,0
0.466,0.01,0.01,0.22,0,0,0
0.466,0.01,0.01,0.22,0,0,0
0.467,0.01,0.01,0.22,0,0,0
0.469,0.01,0.01,0.22,0,0,0
0.473,0.01,0.01,0.22,0,0,0
0.473,0.01,0.01,0.23,0,0,0
0.474,0.01,0.01,0.23,0,0,0
0.475,0.01,0.01,0.23,0,0,0
0.477,0.01,0.01,0.23,0,0,0
0.479,0.01,0.01,0.23,0,0,0
0.482,0.01,0.01,0.23,0,0,0
0.483,0.01,0.01,0.23,0,0,0
0.483,0.01,0.01,0.23,0,0,0
0.485,0.01,0.01,0.23,0,0,0
0.487,0.01,0.01,0.23,0,0,0
0.489,0.01,0.01,0.23,0,0,0
0.505,0.01,0.01,0.23,0,0,0
0.505,0.01,0.01,0.23,0,0,0
0.505,0.01,0.01,0.23,0,0,0
0.506,0.01,0.01,0.23,0,0,0
0.506,0.01,0.01,0.23,0,0,0
0.506,0.01,0.01,0.23,0,0,0
0.506,0.01,0.01,0.23,0,0,0
0.506,0.02,0,0.22,0,0,0
0.507,0.02,0,0.22,0,0,0
0.507,0.02,0,0.22,0,0,0
0.507,0.02,0,0.22,0,0,0
0.507,0.02,0,0.22,0,0,0
0.509,0.02,0,0.22,0,0,0
0.512,0.02,0,0.22,0,0,0
0.513,0.03,0,0.21,0,0,0
0.513,0.03,0,0.21,0,0,0
0.515,0.03,0,0.21,0,0,0
0.518,0.03,0,0.21,0,0,0
0.519,0.03,0,0.21,0,0,0
0.522,0.03,0,0.21,0,0,0
0.522,0.03,0,0.21,0,0,0
0.523,0.03,0,0.21,0,0,0
0.525,0.03,0,0.21,0,0,0
0.527,0.03,0,0.21,0,0,0
0.529,0.03,0,0.21,0,0,0
0.544,0.03,0,0.21,0,0,0
0.544,0.03,0,0.21,0,0,0
0.545,0.03,0,0.21,0,0.01,0
0.545,0.03,0,0.21,0,0.01,0
0.545,0.03,0,0.21,0,0.01,0
0.545,0.03,0,0.21,0,0.01,0
0.545,0.03,0,0.21,0,0.01,0
0.546,0.01,0,0.25,0,0.01,0
0.546,0.01,0,0.25,0,0.01,0
0.546,0.01,0,0.25,0,0,0
0.547,0.01,0,0.25,0,0.01,0
0.549,0.01,0,0.25,0.01,0.01,0
0.552,0.01,0,0.25,0,0,0
0.553,0.01,0,0.25,0,0,0
0.553,0.01,0,0.25,0.01,0,0
0.555,0.01,0,0.25,0,0,0
0.557,0.01,0,0.25,0,0,0
0.559,0.01,0,0.25,0,0,0
0.565,0.01,0,0.25,0,0,0
0.565,0,0.01,0.25,0,0,0
0.566,0,0.01,0.25,0,0,0
0.566,0,0.01,0.25,0,0,0
0.569,0,0.01,0.25,0,0,0
0.57,0,0.01,0.25,0,0,0
0.586,0,0.01,0.25,0,0,0
0.586,0,0.01,0.25,0,0,0
0.587,0,0.01,0.25,0,0,0
0.587,0,0.01,0.25,0,0,0
0.587,0,0.01,0.25,0,0,0
0.587,0,0.01,0.25,0,0,0
0.587,0,0.01,0.25,0,0,0
0.587,0,0.01,0.25,0,0,0
0.588,0,0,0.23,0,0,0
0.588,0,0,0.23,0,0,0
0.588,0,0,0.23,0,0,0
0.588,0,0,0.23,0,-0.01,0
0.589,0,0,0.23,0,0,0
0.594,0,0,0.23,0,0,0
0.595,0,0,0.23,0,0,0
0.595,0.01,0,0.22,0,0,0
0.595,0.01,0,0.22,0,0,0
0.597,0.01,0,0.22,0,0,0
0.599,0.01,0,0.22,0,0,0
0.602,0.01,0,0.22,0,0,0
0.602,0.01,0,0.22,0,0,0
0.603,0.01,0,0.22,0,0,0
0.605,0.01,0,0.22,0,0,0
0.607,0.01,0,0.22,0,0,0
0.609,0.01,0,0.22,0,0,0
0.626,0.01,0,0.22,0,0,0
0.626,0.01,0,0.22,0,0,0
0.627,0.01,0,0.22,0,0,0
0.627,0.01,0,0.22,0,0,0
0.627,0.01,0,0.22,0,0,0
0.627,0.01,0,0.22,0,0,0
0.628,0.01,0,0.22,0,0,0
0.628,0.01,0,0.22,0,0,0
0.628,0.01,0,0.23,0,0,0
0.628,0.01,0,0.23,0,0,0
0.629,0.01,0,0.23,0,0,0
0.63,0.01,0,0.23,0,0,0
0.632,0.01,0,0.23,0,0.01,0
0.633,0.01,0,0.23,0,0.01,0
0.633,0.01,0,0.23,0,0,0
0.635,0.01,0,0.23,0,0,0
0.637,0.01,0,0.23,0,0,0
0.639,0.01,0,0.23,0,0,0
0.642,0.01,0,0.23,0,0,0
0.643,0.01,0.01,0.22,0,0,0
0.643,0.01,0.01,0.22,0,0,0
0.651,0.01,0.01,0.22,0,0.01,0
0.652,0.01,0.01,0.22,0,0,0
0.652,0.01,0.01,0.22,0,0,0
0.667,0.01,0.01,0.22,0,0,0
0.668,0.01,0.01,0.22,0,0,0
0.668,0.01,0.01,0.22,0,0,0
0.668,0.01,0.01,0.22,0,0.01,0
0.669,0.01,0.01,0.22,0,0.01,0
0.669,0.01,0.01,0.22,0,0,0
0.669,0.01,0.01,0.22,0,0,0
0.669,0.01,0.01,0.22,0,0,0
0.67,0.01,0.01,0.2,0,0,0
0.67,0.01,0.01,0.2,0,0,0
0.67,0.01,0.01,0.2,0,0,0
0.67,0.01,0.01,0.2,0,0,0
0.67,0.01,0.01,0.2,0,0,0
0.673,0.01,0.01,0.2,0,0,0
0.673,0.01,0.01,0.2,0,0,0
0.673,0.01,0.01,0.2,0,0,0
0.675,0.01,0.01,0.2,0,0,0
0.682,0.01,0.01,0.2,0,0,0
0.683,0.01,0.01,0.2,0,0,0
0.686,0.01,0.01,0.2,0,0,0
0.686,0.01,0,0.19,0,0,0
0.686,0.01,0,0.19,0,0,0
0.687,0.01,0,0.19,0,0,0
0.688,0.01,0,0.19,0,0,0
0.69,0.01,0,0.19,0,0,0
0.704,0.01,0,0.19,0,0,0
0.704,0.01,0,0.19,0,0,0
0.704,0.01,0,0.19,0,0,0
0.705,0.01,0,0.19,0,0,0
0.705,0.01,0,0.19,0,0,0
0.705,0.01,0,0.19,0,0,0
0.705,0.01,0,0.19,0,0,0
0.705,0.02,0,0.22,0,0,0
0.706,0.02,0,0.22,0,0,0
0.706,0.02,0,0.22,0,0,0
0.707,0.02,0,0.22,0,0,0
0.709,0.02,0,0.22,0,0,0
0.715,0.02,0,0.22,0,0,0
0.716,0.02,0,0.22,0,0,0
0.716,0.02,0,0.22,0,0,0
0.716,0.02,0,0.22,0,0,0
0.718,0.02,0,0.22,0,0,0
0.719,0.02,0,0.22,0,0,0
0.722,0.02,0,0.22,0,0,0
0.722,0.02,0,0.21,0,0,0
0.723,0.02,0,0.21,0,0,0
0.725,0.02,0,0.21,0,0,0
0.729,0.02,0,0.21,0,0,0
0.73,0.02,0,0.21,0,0,0
0.749,0.02,0,0.21,0,0,0
0.749,0.02,0,0.21,0,0,0
0.75,0.02,0,0.21,0,0,0
0.75,0.02,0,0.21,0,0,0
0.75,0.02,0,0.21,0,0,0
0.75,0.02,0,0.21,0,0,0
0.751,0.02,0,0.21,0,0,0
0.751,0.02,0,0.22,0,0,0
0.751,0.02,0,0.22,0,0,0
0.752,0.02,0,0.22,0,0,0
0.752,0.02,0,0.22,0,0,0
0.752,0.02,0,0.22,0,0,0
0.752,0.02,0,0.22,0,0,0
0.753,0.02,0,0.22,0,0,0
0.754,0.02,0,0.22,0,0,0
0.755,0.02,0,0.22,0,0,0
0.757,0.02,0,0.22,0,0,0
0.759,0.02,0,0.22,0,0,0
0.764,0.02,0,0.22,0,0,0
0.764,0.02,0.01,0.22,0,0,0
0.765,0.02,0.01,0.22,0,0,0
0.765,0.02,0.01,0.22,0,0,0
0.767,0.02,0.01,0.22,0,0,0
0.769,0.02,0.01,0.22,0,0,0
0.786,0.02,0.01,0.22,0,0,0
0.787,0.02,0.01,0.22,0,0,0
0.787,0.02,0.01,0.22,0,0,0
0.787,0.02,0.01,0.22,0,0,0
0.787,0.02,0.01,0.22,0,0,0
0.788,0.02,0.01,0.22,0,0,0
0.788,0.02,0.01,0.22,0,0,0
0.788,0.02,0.01,0.22,0,0,0
0.788,0.02,0.01,0.22,0,0,0
0.788,0.02,0.01,0.22,0,0,0
0.788,0.02,0.01,0.22,0,0,0
0.789,0.02,0.01,0.22,0,0,0
0.789,0.02,0.01,0.22,0,0,0
0.793,0.02,0.01,0.22,0,0,0
0.793,0.01,0,0.23,0,0,0
0.793,0.01,0,0.23,0,0,0
0.795,0.01,0,0.23,0,0,0
0.798,0.01,0,0.23,0,0,0
0.8,0.01,0,0.23,0,0,0
0.802,0.01,0,0.23,0,0,0
0.802,0,0,0.22,0,0,0
0.803,0,0,0.22,0,0,0
0.805,0,0,0.22,0,0,0
0.807,0,0,0.22,0,0,0
0.809,0,0,0.22,0,0,0
0.824,0,0,0.22,0,0,0
0.825,0,0,0.22,0,0,0
0.825,0,0,0.22,0,0,0
0.826,0,0,0.22,0,0,0
0.826,0,0,0.22,0,0,0
0.826,0,0,0.22,0,0,0
0.827,0,0,0.22,0,0,0
0.827,0.01,0,0.23,0,0,0
0.827,0.01,0,0.23,0,0,0
0.828,0.01,0,0.23,0,0,0
0.829,0.01,0,0.23,0,0,0
0.83,0.01,0,0.23,0,0,0
0.833,0.01,0,0.23,0,0,0
0.833,0.02,0.01,0.23,0,0,0
0.834,0.02,0.01,0.23,0,0,0
0.836,0.02,0.01,0.23,0,0,0
0.837,0.02,0.01,0.23,0,0,0
0.839,0.02,0.01,0.23,0,0,0
0.842,0.02,0.01,0.23,0,0,0
0.842,0.02,0.01,0.23,0,0,0
0.845,0.02,0.01,0.23,0,0,0
0.849,0.02,0.01,0.23,0,0,0
0.85,0.02,0.01,0.23,0,0,0
0.85,0.02,0.01,0.23,0,0,0
0.867,0.02,0.01,0.23,0,0,0
0.867,0.02,0.01,0.23,0,0,0
0.868,0.02,0.01,0.23,0,0,0
0.868,0.02,0.01,0.23,0,0,0
0.868,0.02,0.01,0.23,0,0,0
0.868,0.02,0.01,0.23,0,0,0
0.868,0.02,0.01,0.23,0,0,0
0.869,0.02,0.01,0.23,0,0,0
0.869,0.02,0.01,0.22,0,0,0
0.869,0.02,0.01,0.22,0,0,0
0.869,0.02,0.01,0.22,0,0,0
0.87,0.02,0.01,0.22,0,0,0
0.874,0.02,0.01,0.22,0,0,0
0.874,0.02,0.01,0.22,0,0,0
0.874,0.02,0.01,0.22,0,0,0
0.875,0.02,0.01,0.22,0,0,0
0.88,0.02,0.01,0.22,0,0,0
0.881,0.02,0.01,0.22,0,0,0
0.883,0.02,0.01,0.22,0,0,0
0.883,0.02,0.01,0.22,0,0,0
0.884,0.01,0,0.22,0,0,0
0.885,0.01,0,0.22,0,0,0
0.887,0.01,0,0.22,0,0,0
0.889,0.01,0,0.22,0,0,0
0.905,0.01,0,0.22,0,0,0
0.906,0.01,0,0.22,0,0,0
0.906,0.01,0,0.22,0,0,0
0.906,0.01,0,0.22,0,0,0
0.906,0.01,0,0.22,0,0,0
0.907,0.01,0,0.22,0,0,0
0.907,0.01,0,0.22,0,0,0
0.907,0.01,0,0.22,0,0,0
0.907,0,0,0.23,0,0,0
0.907,0,0,0.23,0,0,0
0.907,0,0,0.23,0,0,0
0.908,0,0,0.23,0,0,0
0.91,0,0,0.23,0,0,0
0.913,0,0,0.23,0,0,0
0.914,0,0,0.23,0,0,0
0.914,0.01,0,0.23,0,0,0
0.916,0.01,0,0.23,0,0,0
0.917,0.01,0,0.23,0,0,0
0.919,0.01,0,0.23,0,0,0
0.922,0.01,0,0.23,0,0,0
0.922,0.01,0.01,0.23,0,0,0
0.923,0.01,0.01,0.23,0,0,0
0.925,0.01,0.01,0.23,0,0,0
0.928,0.01,0.01,0.23,0,0,0
0.929,0.01,0.01,0.23,0,0,0
0.944,0.01,0.01,0.23,0,0,0
0.945,0.01,0.01,0.23,0,0,0
0.945,0.01,0.01,0.23,0,0,0
0.946,0.01,0.01,0.23,0,0,0
0.946,0.01,0.01,0.23,0,0,0
0.946,0.01,0.01,0.23,0,0,0
0.946,0.01,0.01,0.23,0,0,0
0.947,0.02,0,0.23,0,0,0
0.947,0.02,0,0.23,0,0,0
0.947,0.02,0,0.23,0,0,0
0.948,0.02,0,0.23,0,0,0
0.949,0.02,0,0.23,0,0,0
0.953,0.02,0,0.23,0,0,0
0.953,0.02,0,0.23,0,0,0
0.953,0.02,0,0.23,0,0,0
0.955,0.02,0,0.23,0,0,0
0.957,0.02,0,0.23,0,0,0
0.959,0.02,0,0.23,0,0,0
0.97,0.02,0,0.23,0,0,0
0.971,0.02,0,0.23,0,0,0
0.971,0.02,0,0.23,0,0,0
0.973,0.02,0,0.23,0,0,0
0.974,0.02,0,0.23,0,0,0
0.974,0.02,0,0.23,0,0,0
0.986,0.02,0,0.23,0,0,0
0.986,0.02,0,0.23,0,0,0
0.986,0.02,0,0.23,0,0,0
0.987,0.02,0,0.23,0,0,0
0.987,0.02,0,0.23,0,0,0
0.987,0.02,0,0.23,0,0,0
0.987,0.02,0,0.23,0,0,0
0.987,0.02,0,0.23,0,0,0
0.987,0.02,0,0.23,0,0,0
0.988,0.02,0,0.23,0,0,0
0.988,0.02,0,0.23,0,0,0
0.99,0.02,0,0.23,0,0,0
0.992,0.02,0,0.23,0,0,0
0.993,0.01,0,0.23,0,0,0
0.994,0.01,0,0.23,0,0,0
0.995,0.01,0,0.23,0,0,0
0.997,0.01,0,0.23,0,0,0
0.999,0.01,0,0.23,0,0,0
1.003,0.01,0,0.23,0,0,0
1.003,0.01,-0.01,0.23,0,0,0
1.003,0.01,-0.01,0.23,0,0,0
1.005,0.01,-0.01,0.23,0,0,0
1.007,0.01,-0.01,0.23,0,0,0
1.009,0.01,-0.01,0.23,0,0,0
1.026,0.01,-0.01,0.23,0,0,0
1.027,0.01,-0.01,0.23,0,0,0
1.027,0.01,-0.01,0.23,0,0,0
1.027,0.01,-0.01,0.23,0,0,0
1.027,0.01,-0.01,0.23,0,0,0
1.028,0.01,-0.01,0.23,0,0,0
1.028,0.01,-0.01,0.23,0,0,0
1.028,0.01,-0.01,0.23,0,0,0
1.028,0.01,0,0.22,0,0,0
1.028,0.01,0,0.22,0,0,0
1.028,0.01,0,0.22,0,0,0
1.031,0.01,0,0.22,0,0,0
1.031,0.01,0,0.22,0,0,0
1.034,0.01,0,0.22,0,0,0
1.034,0.01,0,0.22,0,0,0
1.034,0.01,0,0.22,0,0,0
1.035,0.01,0,0.22,0,0,0
1.038,0.01,0,0.22,0,0,0
1.04,0.01,0,0.22,0,0,0
1.043,0.01,0,0.22,0,0,0
1.044,0.01,0,0.22,0,0,0
1.049,0.01,0,0.22,0,0,0
1.049,0.01,0,0.22,0,0,0
1.05,0.01,0,0.22,0,0,0
1.05,0.01,0,0.22,0,0,0
1.066,0.01,0,0.22,0,0,0
1.067,0.01,0,0.22,0,0,0
1.067,0.01,0,0.22,0,0,0
1.067,0.01,0,0.22,0,0,0
1.067,0.01,0,0.22,0,0,0
1.068,0.01,0,0.22,0,0,0
1.068,0.01,0,0.22,0,0,0
1.068,0.01,0,0.22,0,0,0
1.068,0.01,0.01,0.22,0,0,0
1.068,0.01,0.01,0.22,0,0,0
1.068,0.01,0.01,0.22,0,0,0
1.069,0.01,0.01,0.22,0,0,0
1.07,0.01,0.01,0.22,0,0,0
1.073,0.01,0.01,0.22,0,0,0
1.073,0.01,0.01,0.22,0,0,0
1.073,0.01,0.01,0.22,0,0,0
1.075,0.01,0.01,0.22,0,0,0
1.078,0.01,0.01,0.22,0,0,0
1.082,0.01,0.01,0.22,0,0,0
1.084,0.01,0.01,0.22,0,0,0
1.084,0.01,0.01,0.22,0,0,0
1.084,0.01,0,0.22,0,0,0
1.086,0.01,0,0.22,0,0,0
1.087,0.01,0,0.22,0,0,0
1.089,0.01,0,0.22,0,0,0
1.105,0.01,0,0.22,0,0,0
1.106,0.01,0,0.22,0,0,0
1.106,0.01,0,0.22,0,0,0
1.107,0.01,0,0.22,0,0,0
1.107,0.01,0,0.22,0,0,0
1.107,0.01,0,0.22,0,0,0
1.107,0.01,0,0.22,0,0,0
1.108,0.01,-0.01,0.22,0,0,0
1.108,0.01,-0.01,0.22,0,0,0
1.108,0.01,-0.01,0.22,0,0,0
1.108,0.01,-0.01,0.22,0,0,0
1.109,0.01,-0.01,0.22,0,0,0
1.11,0.01,-0.01,0.22,0,0,0
1.112,0.01,-0.01,0.22,0,0,0
1.113,0.01,-0.01,0.22,0,0,0
1.115,0.01,-0.01,0.22,0,0,0
1.116,0.01,-0.01,0.22,0,0,0
1.118,0.01,-0.01,0.22,0,0,0
1.119,0.01,-0.01,0.22,0,0,0
1.123,0.01,-0.01,0.22,0,0,0
1.123,0.01,0,0.22,0,0,0
1.123,0.01,0,0.22,0,0,0
1.126,0.01,0,0.22,0,0,0
1.129,0.01,0,0.22,0,0,0
1.131,0.01,0,0.22,0,0,0
1.147,0.01,0,0.22,0,0,0
1.147,0.01,0,0.22,0,0,0
1.148,0.01,0,0.22,0,0,0
1.148,0.01,0,0.22,0,0,0
1.148,0.01,0,0.22,0,0,0
1.148,0.01,0,0.22,0,0,0
1.149,0.01,0,0.22,0,0,0
1.149,0.01,0,0.22,0,0,0
1.15,0.01,0.01,0.22,0,0,0
1.15,0.01,0.01,0.22,0,0,0
1.151,0.01,0.01,0.22,0,0,0
1.151,0.01,0.01,0.22,0,0,0
1.151,0.01,0.01,0.22,0,0,0
1.153,0.01,0.01,0.22,0,0,0
1.153,0.02,0.01,0.23,0,0,0
1.153,0.02,0.01,0.23,0,0,0
1.156,0.02,0.01,0.23,0,0,0
1.158,0.02,0.01,0.23,0,0,0
1.159,0.02,0.01,0.23,0,0,0
1.166,0.02,0.01,0.23,0,0,0
1.167,0.02,0.01,0.23,0,0,0
1.167,0.02,0.01,0.23,0,0,0
1.168,0.02,0.01,0.23,0,0,0
1.168,0.02,0.01,0.23,0,0,0
1.173,0.02,0.01,0.23,0,0,0
1.187,0.02,0.01,0.23,0,0,0
1.188,0.02,0.01,0.23,0,0,0
1.188,0.02,0.01,0.23,0,0,0
1.188,0.02,0.01,0.23,0,0,0
1.189,0.02,0.01,0.23,0,0,0
1.189,0.02,0.01,0.23,0,0,0
1.189,0.02,0.01,0.23,0,0,0
1.189,0.02,0.01,0.23,0,0,0
1.19,0.02,0,0.21,0,0,0
1.19,0.02,0,0.21,0,0,0
1.19,0.02,0,0.21,0,0,0
1.191,0.02,0,0.21,0,0,0
1.193,0.02,0,0.21,0,0,0
1.193,0.02,0,0.21,0,0,0
1.193,0.02,0,0.21,0,0,0
1.196,0.02,0,0.21,0,0,0
1.197,0.02,0,0.21,0,0,0
1.2,0.02,0,0.21,0,0,0
1.203,0.02,0,0.21,0,0,0
1.203,0.02,0,0.21,0,0,0
1.204,0.02,0,0.21,0,0,0
1.206,0.02,0,0.21,0,0,0
1.207,0.02,0,0.21,0,0,0
1.209,0.02,0,0.21,0,0,0
1.226,0.02,0,0.21,0,0,0
1.226,0.02,0,0.21,0,0,0
1.227,0.02,0,0.21,0,0,0
1.227,0.02,0,0.21,0,0,0
1.227,0.02,0,0.21,0,0.01,0
1.228,0.02,0,0.21,0,0,0
1.228,0.02,0,0.21,0,0,0
1.228,0.02,0,0.21,0,0,0
1.229,0.01,0.01,0.21,0,0,0
1.229,0.01,0.01,0.21,0,0,0
1.229,0.01,0.01,0.21,0,0,0
1.235,0.01,0.01,0.21,0,0,0
1.236,0.01,0.01,0.21,0,0,0
1.236,0.01,0.01,0.22,0,0,0
1.237,0.01,0.01,0.22,0,0,0
1.237,0.01,0.01,0.22,0,0,0
1.237,0.01,0.01,0.22,0,0,0
1.24,0.01,0.01,0.22,0,0,0
1.242,0.01,0.01,0.22,0,0,0
1.242,0.01,0.01,0.22,0,0,0
1.243,0.01,0.01,0.22,0,0,0
1.245,0.01,0.01,0.22,0,0,0
1.247,0.01,0.01,0.22,0,0,0
1.249,0.01,0.01,0.22,0,0,0
1.27,0.01,0.01,0.22,0,0,0
1.271,0.01,0.01,0.22,0,0,0
1.271,0.01,0.01,0.22,0,0,0
1.271,0.01,0.01,0.22,0,0,0
1.271,0.01,0.01,0.22,0,0,0
1.271,0.01,0.01,0.22,0,0,0
1.272,0.01,0.01,0.22,0,0,0
1.272,0.01,0.01,0.22,0,0,0
1.272,0.01,0.01,0.22,0,0,0
1.272,0.01,0.01,0.22,0,0,0
1.272,0.01,0.01,0.22,0,0,0
1.272,0.01,0.01,0.22,0,0,0
1.273,0.01,0.01,0.22,0,0,0
1.273,0.02,0,0.22,0,0,0
1.273,0.02,0,0.22,0,0,0
1.275,0.02,0,0.22,0,0,0
1.277,0.02,0,0.22,0,0,0
1.279,0.02,0,0.22,0,0,0
1.284,0.02,0,0.22,0,0,0
1.284,0.02,0,0.22,0,0,0
1.285,0.02,0,0.22,0,0,0
1.287,0.02,0,0.22,0,0,0
1.287,0.02,0,0.22,0,0,0
1.29,0.02,0,0.22,0,0,0
1.305,0.02,0,0.22,0,0,0
1.306,0.02,0,0.22,0,0,0
1.306,0.02,0,0.22,0,0,0
1.307,0.02,0,0.22,0,0,0
1.307,0.02,0,0.22,0,0,0
1.307,0.02,0,0.22,0,0,0
1.307,0.02,0,0.22,0,0,0
1.308,0.02,0.01,0.21,0,0,0
1.308,0.02,0.01,0.21,0,0,0
1.309,0.02,0.01,0.21,0,0,0
1.309,0.02,0.01,0.21,0,0,0
1.31,0.02,0.01,0.21,0,0,0
1.313,0.02,0.01,0.21,0,0,0
1.313,0.02,0.01,0.22,0,0,0
1.314,0.02,0.01,0.22,0,0,0
1.315,0.02,0.01,0.22,0,0,0
1.317,0.02,0.01,0.22,0,0.01,0
1.319,0.02,0.01,0.22,0,0.01,0
1.322,0.02,0.01,0.22,0,0,0
1.322,0.01,0,0.22,0,0,0
1.323,0.01,0,0.22,0,0,0
1.327,0.01,0,0.22,0,0,0
1.327,0.01,0,0.22,0,0,0
1.329,0.01,0,0.22,0,0,0
1.344,0.01,0,0.22,0,0,0
1.345,0.01,0,0.22,0,0,0
1.345,0.01,0,0.22,0,0,0
1.346,0.01,0,0.22,0,0,0
1.351,0.01,0,0.22,0,0,0
1.351,0.01,0,0.22,0,0,0
1.352,0.01,0,0.22,0,0,0
1.352,0.01,0,0.22,0,0,0
1.352,0.01,0,0.22,0,0,0
1.353,0.01,0,0.22,0,0,0
1.353,0.01,0,0.22,0,0,0
1.353,0.01,0,0.22,0,0,0
1.354,0.01,0,0.22,0,0,0
1.354,0.01,0,0.22,0,0,0
1.354,0.01,0,0.22,0,0,0
1.36,0.01,0,0.22,0,0,0
1.361,0.01,0,0.22,0,0,0
1.361,0.01,0,0.22,0,0,0
1.365,0.01,0,0.22,0,0,0
1.366,0.01,0,0.22,0,0,0
1.366,0.01,0,0.22,0,0,0
1.369,0.01,0,0.22,0,0,0
1.369,0.01,0,0.22,0,0,0
1.369,0.01,0,0.22,0,0,0
1.386,0.01,0,0.22,0,0,0
1.386,0.01,0,0.22,0,0,0
1.386,0.01,0,0.22,0,0,0
1.387,0.01,0,0.22,0,0,0
1.387,0.01,0,0.22,0,0,0
1.387,0.01,0,0.22,0,0,0
1.387,0.01,0,0.22,0,0,0
1.387,0.01,0,0.22,0,0,0
1.387,0.01,0,0.22,0,0,0
1.387,0.01,0,0.22,0,0,0
1.388,0.01,0,0.22,0,0,0
1.388,0.01,0,0.22,0,0,0
1.389,0.01,0,0.22,0,0,0
1.393,0.01,0,0.22,0,0,0
1.393,0.01,0,0.22,0,0,0
1.394,0.03,0,0.21,0,0,0
1.395,0.03,0,0.21,0,0,0
1.398,0.03,0,0.21,0,0,0
1.399,0.03,0,0.21,0,0,0
1.403,0.03,0,0.21,0,0,0
1.403,0.04,-0.01,0.25,0,0,0
1.403,0.04,-0.01,0.25,0,0,0
1.405,0.04,-0.01,0.25,0,0,0
1.407,0.04,-0.01,0.25,0,0,0
1.409,0.04,-0.01,0.25,0,0,0
1.425,0.04,-0.01,0.25,0,0,0
1.426,0.04,-0.01,0.25,0,0,0
1.427,0.04,-0.01,0.25,0,0,0
1.427,0.04,-0.01,0.25,0,0,0
1.427,0.04,-0.01,0.25,0,0,0
1.427,0.04,-0.01,0.25,0,0,0
1.428,0.04,-0.01,0.25,0,0,0
1.428,0.01,0.01,0.22,0,0,0
1.428,0.01,0.01,0.22,0,0,0
1.429,0.01,0.01,0.22,0,0,0
1.429,0.01,0.01,0.22,0,0,0
1.434,0.01,0.01,0.22,0,0,0
1.434,0.01,0.01,0.22,0,0,0
1.434,0.01,0.01,0.22,0,0,0
1.435,0.02,0.01,0.2,0,0,0
1.435,0.02,0.01,0.2,0,0,0
1.437,0.02,0.01,0.2,0,0,0
1.439,0.02,0.01,0.2,0,0,0
1.442,0.02,0.01,0.2,0,0,0
1.442,0.01,0.01,0.2,0,0,0
1.443,0.01,0.01,0.2,0,0,0
1.449,0.01,0.01,0.2,0,0,0
1.45,0.01,0.01,0.2,0,0,0
1.45,0.01,0.01,0.2,0,0,0
1.465,0.01,0.01,0.2,0,0,0
1.465,0.01,0.01,0.2,0,0,0
1.466,0.01,0.01,0.2,0,0,0
1.466,0.01,0.01,0.2,0,0,0
1.466,0.01,0.01,0.2,0,0,0
1.467,0.01,0.01,0.2,0,0,0
1.467,0.01,0.01,0.2,0,0,0
1.467,0.03,-0.03,0.21,0,0,0
1.467,0.03,-0.03,0.21,0,0,0
1.469,0.03,-0.03,0.21,0,0,0
1.469,0.03,-0.03,0.21,0,0,0
1.47,0.03,-0.03,0.21,0,0,0
1.473,0.03,-0.03,0.21,0,0,0
1.473,0.04,-0.03,0.23,0,0,0
1.474,0.04,-0.03,0.23,0,0,0
1.475,0.04,-0.03,0.23,0,0,0
1.477,0.04,-0.03,0.23,0,0,0
1.48,0.04,-0.03,0.23,0,0,0
1.484,0.04,-0.03,0.23,0,0,0
1.484,0.02,-0.02,0.23,0,0,0
1.484,0.02,-0.02,0.23,0,0,0
1.485,0.02,-0.02,0.23,0,0,0
1.487,0.02,-0.02,0.23,0,0,0
1.489,0.02,-0.02,0.23,0,0,0
1.506,0.02,-0.02,0.23,0,0,0
1.507,0.02,-0.02,0.23,0,0,0
1.507,0.02,-0.02,0.23,0,0,0
1.507,0.02,-0.02,0.23,0,0,0
1.507,0.02,-0.02,0.23,0,0,0
1.507,0.02,-0.02,0.23,0,0,0
1.508,0.02,-0.02,0.23,0,0,0
1.514,0.02,-0.02,0.23,0,0,0
1.514,0.03,0,0.24,0,0,0
1.514,0.03,0,0.24,0,0,0
1.515,0.03,0,0.24,0,0,0
1.515,0.03,0,0.24,0,0,0
1.515,0.03,0,0.24,0,0,0
1.515,0.03,0,0.24,0,0,0
1.515,0.03,0,0.24,0,0,0
1.515,0.03,0.01,0.22,0,0,0
1.52,0.03,0.01,0.22,0,0.01,0
1.521,0.03,0.01,0.22,0,0,0
1.521,0.03,0.01,0.22,0,0,0
1.522,0.03,0.01,0.22,0,0,0
1.523,0.04,0.02,0.21,0,0,0
1.523,0.04,0.02,0.21,0,0,0
1.526,0.04,0.02,0.21,0,0,0
1.529,0.04,0.02,0.21,0,0,0
1.531,0.04,0.02,0.21,0,0,0
1.545,0.04,0.02,0.21,0,0,0
1.546,0.04,0.02,0.21,0,0,0
1.546,0.04,0.02,0.21,0,0,0
1.546,0.04,0.02,0.21,0,0,0
1.547,0.04,0.02,0.21,0,0,0
1.547,0.04,0.02,0.21,0,0,0
1.547,0.04,0.02,0.21,0,0,0
1.547,0.04,0.02,0.21,0,0,0
1.548,0.04,0.02,0.21,0,0,0
1.549,0.04,0.02,0.21,0,0,0
1.55,0.04,0.02,0.21,0,0,0
1.55,0.04,0.02,0.21,0,0,0
1.553,0.04,0.02,0.21,0,0,0
1.554,0.04,0.02,0.21,0,0,0
1.554,0.02,-0.01,0.22,0,0,0
1.555,0.02,-0.01,0.22,0,0,0
1.557,0.02,-0.01,0.22,0,0,0
1.559,0.02,-0.01,0.22,0,0,0
1.567,0.02,-0.01,0.22,0,0,0
1.567,0.04,-0.04,0.23,0,0,0
1.568,0.04,-0.04,0.23,0,0,0
1.568,0.04,-0.04,0.23,0,0,0
1.568,0.04,-0.04,0.23,0,0,0
1.57,0.04,-0.04,0.23,0,0,0
1.586,0.04,-0.04,0.23,0,0,0
1.587,0.04,-0.04,0.23,0,0,0
1.587,0.04,-0.04,0.23,0,0,0
1.587,0.04,-0.04,0.23,0,0,0
1.587,0.04,-0.04,0.23,0,0,0
1.588,0.04,-0.04,0.23,0,0,0
1.588,0.04,-0.04,0.23,0,0,0
1.588,0.04,-0.04,0.23,0,0,0
1.588,0.03,0.01,0.24,0,0,0
1.589,0.03,0.01,0.24,0,0,0
1.589,0.03,0.01,0.24,0,0,0
1.589,0.03,0.01,0.24,0,0,0
1.592,0.03,0.01,0.24,0,0,0
1.593,0.03,-0.02,0.24,0,0,0
1.593,0.03,-0.02,0.24,0,0,0
1.598,0.03,-0.02,0.24,0,0.01,0
1.6,0.03,-0.02,0.24,0,0,0
1.602,0.03,-0.02,0.24,0,0,0
1.604,0.03,-0.02,0.24,0,0.01,0
1.604,0.03,-0.02,0.24,0,0,0
1.604,0.03,0,0.24,0,0,0
1.606,0.03,0,0.24,0,0,0
1.607,0.03,0,0.24,0,0.01,0
1.609,0.03,0,0.24,0,0,0
1.625,0.03,0,0.24,0,0,0
1.626,0.03,0,0.24,0,0,0
1.626,0.03,0,0.24,0,0,0
1.626,0.03,0,0.24,0,0,0
1.627,0.03,0,0.24,0,0,0
1.627,0.03,0,0.24,0,0,0
1.627,0.03,0,0.24,0,0,0
1.627,0.03,0,0.24,0,0,0
1.628,0.04,-0.01,0.21,0,0,0
1.628,0.04,-0.01,0.21,0,0,0
1.628,0.04,-0.01,0.21,0,0,0
1.629,0.04,-0.01,0.21,0,0,0
1.63,0.04,-0.01,0.21,0,0,0
1.636,0.04,-0.01,0.21,0,0,0
1.636,0.04,-0.01,0.21,0,0,0
1.636,0.04,-0.01,0.21,0,0,0
1.636,0.02,-0.02,0.23,0,0,0
1.637,0.02,-0.02,0.23,0,0,0
1.639,0.02,-0.02,0.23,0,0,0
1.642,0.02,-0.02,0.23,0,0,0
1.643,0,-0.01,0.24,0,0,0
1.644,0,-0.01,0.24,0,-0.01,0
1.646,0,-0.01,0.24,0,0,0
1.648,0,-0.01,0.24,0,0,0
1.651,0,-0.01,0.24,0,0,0
1.668,0,-0.01,0.24,0,0,0
1.669,0,-0.01,0.24,0,0,0
1.669,0,-0.01,0.24,0,0,0
1.67,0,-0.01,0.24,0,0,0
1.67,0,-0.01,0.24,0,0,0
1.67,0,-0.01,0.24,0,0,0
1.67,0,-0.01,0.24,0,0,0
1.671,0,-0.01,0.23,0,0,0
1.671,0,-0.01,0.23,0,0,0
1.675,0,-0.01,0.23,0,0,0
1.675,0,-0.01,0.23,0,0,0
1.676,0,-0.01,0.23,0,0,0
1.676,0,-0.01,0.23,0,0,0
1.676,0.03,-0.01,0.2,0,0,0
1.676,0.03,-0.01,0.2,0,0,0
1.677,0.03,-0.01,0.2,0,0,0
1.682,0.03,-0.01,0.2,0,0,0
1.683,0.03,-0.01,0.2,0,0,0
1.683,0.03,-0.01,0.2,0,0,0
1.683,0.01,0.02,0.25,0,0,0
1.684,0.01,0.02,0.25,0,0,0
1.685,0.01,0.02,0.25,0,0,0
1.688,0.01,0.02,0.25,0,0,0
1.689,0.01,0.02,0.25,0,0,0
1.704,0.01,0.02,0.25,0,0,0
1.705,0.01,0.02,0.25,0,0,0
1.705,0.01,0.02,0.25,0,0,0
1.706,0.01,0.02,0.25,0,0,0
1.706,0.01,0.02,0.25,0,0,0
1.706,0.01,0.02,0.25,0,0,0
1.706,0.01,0.02,0.25,0,0,0
1.707,0.03,0,0.23,0,0,0
1.707,0.03,0,0.23,0,0,0
1.707,0.03,0,0.23,0,0,0
1.708,0.03,0,0.23,0,0,0
1.709,0.03,0,0.23,0,0,0
1.719,0.03,0,0.23,0,0,0
1.719,0.03,0,0.23,0,0,0
1.72,0.03,0,0.23,0,0,0
1.72,0.03,0,0.23,0,0,0
1.72,0.02,0.02,0.19,0,0,0
1.72,0.02,0.02,0.19,0,0,0
1.722,0.02,0.02,0.19,0,0,0
1.722,0.02,-0.05,0.23,0,0,0
1.723,0.02,-0.05,0.23,0,0,0
1.726,0.02,-0.05,0.23,0,0,0
1.728,0.02,-0.05,0.23,0,0,0
1.73,0.02,-0.05,0.23,0,0,0
1.754,0.02,-0.05,0.23,0,0,0
1.755,0.02,-0.05,0.23,0,0,0
1.755,0.02,-0.05,0.23,0,0,0
1.756,0.02,-0.05,0.23,0,0,0
1.756,0.02,-0.05,0.23,0,0,0
1.756,0.02,-0.05,0.23,0,0,0
1.756,0.02,-0.05,0.23,0,0,0
1.757,0.02,-0.05,0.21,0,0,0
1.757,0.02,-0.05,0.21,0,0,0
1.757,0.02,-0.05,0.21,0,0,0
1.757,0.02,-0.05,0.21,0,0,0
1.758,0.02,-0.05,0.21,0,0,0
1.758,0.02,-0.05,0.21,0,0,0
1.758,0.02,-0.05,0.21,0.01,0,0
1.758,0.02,-0.05,0.21,0,0,0
1.758,0.02,-0.05,0.21,0,0.01,0
1.759,0.02,-0.05,0.21,0,0.01,0
1.759,-0.01,-0.01,0.22,0,0.01,0
1.762,-0.01,-0.01,0.22,0.01,0.01,0
1.767,-0.01,-0.01,0.22,0.01,0.02,0
1.767,0.02,-0.01,0.31,0.01,0.02,0
1.767,0.02,-0.01,0.31,0.01,0.02,0
1.768,0.02,-0.01,0.31,0.02,0.04,0
1.768,0.02,-0.01,0.31,0.02,0.05,0
1.769,0.02,-0.01,0.31,0.04,0.07,0
1.784,0.02,-0.01,0.31,0.04,0.08,0
1.785,0.02,-0.01,0.31,0.1,0.21,0
1.785,0.02,-0.01,0.31,0.11,0.23,0
1.785,0.02,-0.01,0.31,0.11,0.23,0
1.785,0.02,-0.01,0.31,0.11,0.23,0
1.785,0.02,-0.01,0.31,0.12,0.25,0
1.786,0.09,-0.03,0.67,0.12,0.25,0
1.786,0.12,-0.04,0.67,0.12,0.25,0
1.786,0.12,-0.04,0.67,0.13,0.27,0
1.786,0.12,-0.04,0.67,0.14,0.3,0
1.787,0.12,-0.04,0.67,0.16,0.34,0
1.79,0.12,-0.04,0.67,0.19,0.39,0
1.793,0.12,-0.04,0.67,0.21,0.44,0
1.793,0.15,-0.06,0.76,0.21,0.44,0
1.794,0.15,-0.06,0.76,0.23,0.46,-0.01
1.795,0.15,-0.06,0.76,0.25,0.51,0
1.797,0.15,-0.06,0.76,0.27,0.56,-0.01
1.799,0.15,-0.06,0.76,0.3,0.61,0
1.803,0.15,-0.06,0.76,0.31,0.63,0.01
1.803,-0.04,-0.06,0.79,0.31,0.63,0.01
1.803,-0.04,-0.06,0.79,0.33,0.67,0.03
1.806,-0.04,-0.06,0.79,0.34,0.71,0.06
1.807,-0.04,-0.06,0.79,0.35,0.72,0.08
1.81,-0.04,-0.06,0.79,0.36,0.73,0.13
1.826,-0.04,-0.06,0.79,0.36,0.72,0.17
1.827,-0.04,-0.06,0.79,-0.06,-0.1,0.3
1.828,-0.04,-0.06,0.79,-0.06,-0.1,0.3
1.828,-0.04,-0.06,0.79,-0.13,0.03,0.32
1.828,-0.04,-0.06,0.79,-0.11,0.04,0.34
1.828,-0.04,-0.06,0.79,-0.11,0.04,0.34
1.829,-0.04,-0.06,0.79,-0.11,0.04,0.34
1.829,-0.04,-0.06,0.79,0.01,-0.13,0.38
1.829,1.37,0.5,-0.95,0.01,-0.13,0.38
1.829,1.43,0.48,-0.95,0.01,-0.13,0.38
1.83,1.43,0.49,-0.95,0.01,-0.13,0.38
1.83,1.43,0.49,-0.95,0.02,0.02,0.41
1.834,1.43,0.49,-0.95,0.05,0.08,0.43
1.834,1.43,0.49,-0.95,0.09,0.17,0.49
1.834,1.43,0.49,-0.95,0.09,0.17,0.49
1.834,1.43,0.49,-0.95,0,0.06,0.5
1.836,1.43,0.49,-0.95,0.02,-0.07,0.55
1.837,1.43,0.49,-0.95,0.03,-0.01,0.56
1.839,1.43,0.49,-0.95,-0.01,0.04,0.53
1.842,1.43,0.49,-0.95,0.04,0.01,0.47
1.843,-0.76,-1.13,1.06,0.04,0.01,0.47
1.843,-0.76,-1.13,1.06,0.01,0.03,0.35
1.85,-0.76,-1.13,1.06,0.02,0.02,0.29
1.851,-0.76,-1.13,1.06,0.03,-0.01,0.19
1.851,-0.76,-1.13,1.06,-0.01,-0.01,0.09
1.865,-0.76,-1.13,1.06,-0.01,-0.02,0.06
1.867,-0.76,-1.13,1.06,-0.02,-0.01,-0.09
1.867,-0.76,-1.13,1.06,-0.01,0.01,-0.11
1.867,-0.76,-1.13,1.06,0,0.04,-0.13
1.868,-0.76,-1.13,1.06,0,0.04,-0.13
1.868,-0.76,-1.13,1.06,0,0.04,-0.13
1.868,-0.76,-1.13,1.06,0,0.04,-0.13
1.868,0.8,0.22,0.64,0,0.04,-0.13
1.869,0.8,0.22,0.64,0,0.04,-0.13
1.869,0.8,0.22,0.64,0,0.04,-0.13
1.869,0.8,0.22,0.64,0.04,0.09,-0.17
1.869,0.8,0.22,0.64,0.06,0.11,-0.2
1.869,0.8,0.22,0.64,0.03,0.1,-0.26
1.873,0.8,0.22,0.64,-0.04,0.11,-0.29
1.873,0.33,0.49,-0.8,-0.04,0.11,-0.29
1.874,0.33,0.49,-0.8,-0.06,0.17,-0.31
1.875,0.33,0.49,-0.8,-0.06,0.22,-0.36
1.878,0.33,0.49,-0.8,-0.05,0.3,-0.41
1.879,0.33,0.49,-0.8,-0.06,0.38,-0.44
1.884,0.33,0.49,-0.8,-0.08,0.42,-0.45
1.884,0.33,0.49,-0.8,-0.12,0.47,-0.46
1.885,0.21,0.18,0.31,-0.12,0.47,-0.46
1.885,0.21,0.18,0.31,-0.18,0.48,-0.45
1.887,0.21,0.18,0.31,-0.25,0.46,-0.42
1.889,0.21,0.18,0.31,-0.29,0.43,-0.41
1.904,0.21,0.18,0.31,-0.39,0.38,-0.37
1.905,0.21,0.18,0.31,-0.77,0.12,-0.27
1.905,0.21,0.18,0.31,-0.77,0.12,-0.27
1.905,0.21,0.18,0.31,-0.77,0.12,-0.27
1.905,0.21,0.18,0.31,-0.77,0.12,-0.27
1.905,0.21,0.18,0.31,-0.82,0.09,-0.27
1.906,0.21,0.18,0.31,-0.86,0.08,-0.26
1.906,-2,-0.44,-1.1,-0.86,0.08,-0.26
1.906,-1.95,-0.32,-1.1,-0.86,0.08,-0.26
1.906,-1.95,-0.32,-1.1,-0.94,0.07,-0.25
1.907,-1.95,-0.32,-1.1,-1.01,0.04,-0.25
1.909,-1.95,-0.32,-1.1,-1.08,0.03,-0.26
1.913,-1.95,-0.32,-1.1,-1.12,0.03,-0.26
1.913,-1.94,-0.57,-0.44,-1.12,0.03,-0.26
1.914,-1.94,-0.57,-0.44,-1.07,-0.09,-0.29
1.916,-1.94,-0.57,-0.44,-0.78,-0.42,-0.35
1.917,-1.94,-0.57,-0.44,-0.59,-0.28,-0.39
1.92,-1.94,-0.57,-0.44,-0.63,0.29,-0.37
1.923,-1.94,-0.57,-0.44,-0.52,0.38,-0.36
1.923,-1.06,-0.31,1.85,-0.52,0.38,-0.36
1.923,-1.06,-0.31,1.85,-0.44,0.5,-0.35
1.925,-1.06,-0.31,1.85,-0.43,0.47,-0.33
1.927,-1.06,-0.31,1.85,-0.42,0.35,-0.28
1.93,-1.06,-0.31,1.85,-0.45,0.31,-0.22
1.944,-1.06,-0.31,1.85,-0.45,0.2,-0.16
1.945,-1.06,-0.31,1.85,-0.5,-0.07,0.16
1.945,-1.06,-0.31,1.85,-0.5,-0.07,0.16
1.946,-1.06,-0.31,1.85,-0.5,-0.07,0.16
1.946,-1.06,-0.31,1.85,-0.5,-0.07,0.2
1.946,-1.06,-0.31,1.85,-0.5,-0.04,0.24
1.947,-1.06,-0.31,1.85,-0.5,-0.04,0.24
1.947,0.37,2.12,0.39,-0.5,-0.04,0.24
1.947,0.38,2.21,0.4,-0.5,-0.04,0.24
1.948,0.37,2.26,0.4,-0.5,-0.04,0.24
1.948,0.37,2.26,0.4,-0.49,0.02,0.33
1.954,0.37,2.26,0.4,-0.48,0.06,0.36
1.954,0.37,2.26,0.4,-0.46,0.14,0.43
1.955,0.37,2.26,0.4,-0.45,0.21,0.49
1.955,0.37,2.26,0.4,-0.45,0.25,0.54
1.955,0.37,2.26,0.4,-0.45,0.25,0.54
1.956,0.37,2.26,0.4,-0.44,0.25,0.56
1.957,0.37,2.26,0.4,-0.45,0.22,0.61
1.959,0.37,2.26,0.4,-0.49,0.12,0.64
1.968,0.37,2.26,0.4,-0.52,0.06,0.66
1.969,3.35,0.34,-0.63,-0.52,0.06,0.66
1.969,3.35,0.34,-0.63,-0.59,-0.11,0.71
1.97,3.35,0.34,-0.63,-0.69,-0.29,0.74
1.97,3.35,0.34,-0.63,-0.79,-0.46,0.77
1.97,3.35,0.34,-0.63,-0.84,-0.54,0.78
1.986,3.35,0.34,-0.63,-0.93,-0.71,0.78
1.986,3.35,0.34,-0.63,-1.22,-1.38,0.61
1.987,3.35,0.34,-0.63,-1.22,-1.38,0.61
1.987,3.35,0.34,-0.63,-1.27,-1.41,0.57
1.987,3.35,0.34,-0.63,-1.3,-1.43,0.53
1.987,3.35,0.34,-0.63,-1.3,-1.43,0.53
1.987,3.35,0.34,-0.63,-1.3,-1.43,0.53
1.988,3.35,0.34,-0.63,-1.33,-1.44,0.48
1.988,2.89,-2.28,-0.13,-1.33,-1.44,0.48
1.988,2.7,-2.07,-0.11,-1.33,-1.44,0.48
1.989,2.7,-2.07,-0.11,-1.34,-1.48,0.38
1.989,2.7,-2.07,-0.11,-1.31,-1.48,0.26
1.994,2.7,-2.07,-0.11,-1.28,-1.46,0.2
1.997,2.7,-2.07,-0.11,-1.21,-1.39,0.11
1.998,2.38,-0.89,1.83,-1.21,-1.39,0.11
1.998,2.38,-0.89,1.83,-1.12,-1.33,0.05
1.998,2.38,-0.89,1.83,-1.02,-1.25,0.02
2,2.38,-0.89,1.83,-0.96,-1.2,0.01
2.003,2.38,-0.89,1.83,-0.84,-1.1,0
2.003,2.24,-0.77,1.84,-0.84,-1.1,0
2.003,2.24,-0.77,1.84,-0.7,-0.99,0.01
2.005,2.24,-0.77,1.84,-0.63,-0.93,0.02
2.008,2.24,-0.77,1.84,-0.49,-0.79,0.03
2.009,2.24,-0.77,1.84,-0.35,-0.68,0.06
2.024,2.24,-0.77,1.84,-0.22,-0.6,0.07
2.025,2.24,-0.77,1.84,0.29,-0.13,0.04
2.025,2.24,-0.77,1.84,0.29,-0.13,0.04
2.026,2.24,-0.77,1.84,0.29,-0.13,0.04
2.026,2.24,-0.77,1.84,0.29,-0.13,0.04
2.026,2.24,-0.77,1.84,0.35,-0.07,0.02
2.026,2.24,-0.77,1.84,0.41,-0.02,0.01
2.027,-3.86,-1.48,2.26,0.41,-0.02,0.01
2.027,-3.92,-1.49,2.26,0.41,-0.02,0.01
2.027,-3.92,-1.49,2.26,0.53,0.09,-0.01
2.027,-3.92,-1.49,2.26,0.59,0.15,-0.01
2.031,-3.92,-1.49,2.26,0.7,0.26,-0.02
2.036,-3.92,-1.49,2.26,0.81,0.37,0
2.036,-3.92,-1.49,2.26,0.9,0.47,0.03
2.037,-4.56,-0.79,1.91,0.9,0.47,0.03
2.037,-4.56,-0.79,1.91,0.94,0.51,0.05
2.038,-4.56,-0.79,1.91,0.99,0.56,0.1
2.039,-4.56,-0.79,1.91,1.02,0.61,0.15
2.043,-4.56,-0.79,1.91,1.05,0.67,0.2
2.043,-4.03,-1.23,1.61,1.05,0.67,0.2
2.043,-4.03,-1.23,1.61,1.06,0.7,0.22
2.051,-4.03,-1.23,1.61,1.08,0.77,0.24
2.051,-4.03,-1.23,1.61,1.09,0.83,0.26
2.052,-4.03,-1.23,1.61,1.09,0.86,0.26
2.068,-4.03,-1.23,1.61,1.08,0.93,0.25
2.069,-4.03,-1.23,1.61,0.99,1.25,0.11
2.069,-4.03,-1.23,1.61,0.97,1.28,0.1
2.07,-4.03,-1.23,1.61,0.97,1.28,0.1
2.07,-4.03,-1.23,1.61,0.95,1.29,0.1
2.07,-4.03,-1.23,1.61,0.95,1.29,0.09
2.07,-4.03,-1.23,1.61,0.92,1.31,0.07
2.07,-0.47,-0.99,1.09,0.92,1.31,0.07
2.071,-0.38,-1.1,1.08,0.92,1.31,0.07
2.071,-0.26,-1.19,1.07,0.92,1.31,0.07
2.071,-0.26,-1.19,1.07,0.89,1.32,0.07
2.071,-0.26,-1.19,1.07,0.83,1.32,0.06
2.072,-0.26,-1.19,1.07,0.75,1.3,0.08
2.073,-0.26,-1.19,1.07,0.7,1.27,0.09
2.074,-1.2,-0.84,0.64,0.7,1.27,0.09
2.074,-1.2,-0.84,0.64,0.6,1.22,0.12
2.076,-1.2,-0.84,0.64,0.48,1.17,0.17
2.077,-1.2,-0.84,0.64,0.36,1.12,0.22
2.079,-1.2,-0.84,0.64,0.3,1.09,0.24
2.083,-1.2,-0.84,0.64,0.16,1.03,0.3
2.084,-1.94,-0.32,0.62,0.16,1.03,0.3
2.084,-1.94,-0.32,0.62,0.03,0.96,0.37
2.086,-1.94,-0.32,0.62,-0.12,0.87,0.43
2.088,-1.94,-0.32,0.62,-0.19,0.81,0.47
2.089,-1.94,-0.32,0.62,-0.34,0.68,0.53
2.106,-1.94,-0.32,0.62,-0.5,0.55,0.61
2.107,-1.94,-0.32,0.62,-1.05,0.19,0.84
2.107,-1.94,-0.32,0.62,-1.11,0.18,0.85
2.107,-1.94,-0.32,0.62,-1.16,0.19,0.87
2.107,-1.94,-0.32,0.62,-1.16,0.19,0.87
2.108,-1.94,-0.32,0.62,-1.16,0.19,0.87
2.108,-1.94,-0.32,0.62,-1.16,0.19,0.87
2.108,-1.94,-0.32,0.62,-1.26,0.23,0.88
2.108,0.11,-0.55,0.49,-1.26,0.23,0.88
2.109,0.17,-0.5,0.49,-1.26,0.23,0.88
2.109,0.19,-0.4,0.5,-1.26,0.23,0.88
2.109,0.19,-0.4,0.5,-1.34,0.32,0.89
2.11,0.19,-0.4,0.5,-1.38,0.36,0.88
2.113,0.19,-0.4,0.5,-1.44,0.46,0.85
2.114,1.15,-0.74,1.62,-1.44,0.46,0.85
2.115,1.15,-0.74,1.62,-1.47,0.55,0.79
2.116,1.15,-0.74,1.62,-1.49,0.59,0.76
2.118,1.15,-0.74,1.62,-1.49,0.66,0.69
2.119,1.15,-0.74,1.62,-1.47,0.71,0.63
2.123,1.15,-0.74,1.62,-1.43,0.73,0.57
2.123,1.53,-0.86,3.75,-1.43,0.73,0.57
2.124,1.53,-0.86,3.75,-1.4,0.73,0.55
2.126,1.53,-0.86,3.75,-1.34,0.57,0.55
2.128,1.53,-0.86,3.75,-1.24,0.06,0.66
2.13,1.53,-0.86,3.75,-1.15,-0.39,0.79
2.144,1.53,-0.86,3.75,-1.12,-0.58,0.89
2.145,1.53,-0.86,3.75,-0.18,-1.25,1.58
2.145,1.53,-0.86,3.75,-0.18,-1.25,1.58
2.145,1.53,-0.86,3.75,0.08,-0.94,1.6
2.145,1.53,-0.86,3.75,0.08,-0.94,1.6
2.146,1.53,-0.86,3.75,0.4,-0.53,1.57
2.146,1.53,-0.86,3.75,0.74,-0.06,1.48
2.146,8.95,0.29,12.48,0.74,-0.06,1.48
2.147,8.83,0.39,12.49,0.74,-0.06,1.48
2.147,8.83,0.39,12.49,1.17,0.51,1.31
2.148,8.83,0.39,12.49,2.28,1.87,0.7
2.15,8.83,0.39,12.49,3.44,3.01,0.01
2.152,8.83,0.39,12.49,4.37,3.57,-0.5
2.153,2.22,-4.2,21.64,4.37,3.57,-0.5
2.153,2.22,-4.2,21.64,4.73,3.65,-0.69
2.157,2.22,-4.2,21.64,5.2,3.46,-0.99
2.157,2.22,-4.2,21.64,5.44,3.09,-1.22
2.16,2.22,-4.2,21.64,5.5,2.97,-1.28
2.168,2.22,-4.2,21.64,5.53,2.79,-1.28
2.174,2.22,-4.2,21.64,5.49,2.58,-1.19
2.174,-0.14,-7.95,5.23,5.49,2.58,-1.19
2.175,-0.14,-7.95,5.23,5.4,2.46,-1.1
2.175,-0.14,-7.95,5.23,5.36,2.46,-1.08
2.175,-0.14,-7.95,5.23,5.29,2.52,-1.08
2.185,-0.14,-7.95,5.23,5.24,2.54,-1.15
2.186,-0.14,-7.95,5.23,5.06,2.41,-1.65
2.186,-0.14,-7.95,5.23,5.06,2.41,-1.65
2.186,-0.14,-7.95,5.23,5.06,2.41,-1.65
2.186,-0.14,-7.95,5.23,5.06,2.41,-1.65
2.186,-0.14,-7.95,5.23,5.04,2.39,-1.7
2.187,-0.14,-7.95,5.23,5.02,2.37,-1.74
2.187,-0.14,-7.95,5.23,5,2.29,-1.82
2.187,2.6,-2.48,0.88,5,2.29,-1.82
2.187,2.85,-2.98,0.92,5,2.29,-1.82
2.187,3.09,-3.45,0.98,5,2.29,-1.82
2.188,3.09,-3.45,0.98,5.03,2.18,-1.89
2.189,3.09,-3.45,0.98,5.05,2.14,-1.92
2.193,3.09,-3.45,0.98,5.12,2.11,-1.99
2.193,4.99,-3.7,3.45,5.12,2.11,-1.99
2.193,4.99,-3.7,3.45,5.18,2.13,-2.09
2.195,4.99,-3.7,3.45,5.26,2.16,-2.21
2.198,4.99,-3.7,3.45,5.3,2.19,-2.29
2.2,4.99,-3.7,3.45,5.38,2.27,-2.45
2.203,4.99,-3.7,3.45,5.44,2.39,-2.63
2.203,7.03,-2.62,3.27,5.44,2.39,-2.63
2.204,7.03,-2.62,3.27,5.46,2.46,-2.72
2.205,7.03,-2.62,3.27,5.48,2.63,-2.91
2.207,7.03,-2.62,3.27,5.46,2.79,-3.09
2.21,7.03,-2.62,3.27,5.39,2.94,-3.27
2.225,7.03,-2.62,3.27,5.35,3.01,-3.36
2.226,7.03,-2.62,3.27,4.82,3.14,-4.12
2.226,7.03,-2.62,3.27,4.82,3.14,-4.12
2.226,7.03,-2.62,3.27,4.77,3.08,-4.2
2.227,7.03,-2.62,3.27,4.72,3.03,-4.27
2.227,7.03,-2.62,3.27,4.72,3.03,-4.27
2.227,7.03,-2.62,3.27,4.72,3.03,-4.27
2.227,7.03,-2.62,3.27,4.63,2.9,-4.43
2.228,6.94,-0.89,-2.17,4.63,2.9,-4.43
2.228,7.69,-1.63,-1.75,4.63,2.9,-4.43
2.228,8.1,-1.92,-1.5,4.63,2.9,-4.43
2.228,8.1,-1.92,-1.5,4.59,2.84,-4.52
2.231,8.1,-1.92,-1.5,4.52,2.73,-4.67
2.235,8.1,-1.92,-1.5,4.47,2.68,-4.81
2.235,8.1,-1.92,-1.5,4.44,2.67,-4.88
2.235,7.87,-2,-1.7,4.44,2.67,-4.88
2.235,7.87,-2,-1.7,4.39,2.66,-5.02
2.238,7.87,-2,-1.7,4.3,2.64,-5.14
2.239,7.87,-2,-1.7,4.15,2.59,-5.24
2.243,7.87,-2,-1.7,4.07,2.59,-5.28
2.243,5.27,-3.56,-2.33,4.07,2.59,-5.28
2.243,5.27,-3.56,-2.33,3.99,2.65,-5.33
2.247,5.27,-3.56,-2.33,3.96,2.79,-5.3
2.248,5.27,-3.56,-2.33,3.97,2.88,-5.27
2.25,5.27,-3.56,-2.33,3.98,3.12,-5.15
2.269,5.27,-3.56,-2.33,4.02,3.38,-4.99
2.27,5.27,-3.56,-2.33,4.23,4.08,-4.29
2.27,5.27,-3.56,-2.33,4.23,4.08,-4.29
2.27,5.27,-3.56,-2.33,4.23,4.08,-4.29
2.275,5.27,-3.56,-2.33,4.23,4.08,-4.29
2.275,5.27,-3.56,-2.33,4.25,4.09,-4.22
2.275,5.27,-3.56,-2.33,4.26,4.09,-4.15
2.275,-1.91,-5.17,-0.35,4.26,4.09,-4.15
2.275,-0.98,-5.39,0.29,4.26,4.09,-4.15
2.276,-0.98,-5.39,0.29,4.28,4.05,-4.04
2.276,-0.98,-5.39,0.29,4.28,3.98,-3.97
2.276,-0.98,-5.39,0.29,4.27,3.94,-3.94
2.276,-0.98,-5.39,0.29,4.24,3.9,-3.9
2.276,-0.98,-5.39,0.29,4.18,3.91,-3.88
2.276,2.11,-5.36,-1.88,4.18,3.91,-3.88
2.277,2.11,-5.36,-1.88,4.09,3.96,-3.88
2.28,2.11,-5.36,-1.88,4.05,4.01,-3.88
2.28,2.11,-5.36,-1.88,3.92,4.11,-3.9
2.283,2.11,-5.36,-1.88,3.76,4.21,-3.92
2.283,3.61,-4.44,-5.51,3.76,4.21,-3.92
2.283,3.61,-4.44,-5.51,3.58,4.28,-3.95
2.286,3.61,-4.44,-5.51,3.49,4.3,-3.96
2.288,3.61,-4.44,-5.51,3.27,4.33,-3.99
2.289,3.61,-4.44,-5.51,3.04,4.35,-4.01
2.305,3.61,-4.44,-5.51,2.92,4.36,-4.02
2.306,3.61,-4.44,-5.51,1.99,4.34,-3.9
2.306,3.61,-4.44,-5.51,1.99,4.34,-3.9
2.306,3.61,-4.44,-5.51,1.99,4.34,-3.9
2.307,3.61,-4.44,-5.51,1.89,4.31,-3.91
2.307,3.61,-4.44,-5.51,1.79,4.28,-3.92
2.307,3.61,-4.44,-5.51,1.79,4.28,-3.92
2.307,3.22,-1.23,-9.19,1.79,4.28,-3.92
2.308,4.05,-0.99,-8.41,1.79,4.28,-3.92
2.308,4.05,-0.99,-8.41,1.61,4.22,-3.95
2.308,4.05,-0.99,-8.41,1.53,4.17,-3.97
2.31,4.05,-0.99,-8.41,1.37,4.07,-4.02
2.316,4.05,-0.99,-8.41,1.24,3.96,-4.07
2.316,4.05,-0.99,-8.41,1.18,3.9,-4.09
2.316,4.05,-0.99,-8.41,1.08,3.77,-4.12
2.317,4.05,-0.42,-6.51,1.08,3.77,-4.12
2.319,4.05,-0.42,-6.51,0.99,3.61,-4.14
2.322,4.05,-0.42,-6.51,0.92,3.45,-4.15
2.323,4.05,-0.42,-6.51,0.88,3.37,-4.15
2.323,1.81,-0.41,-3.13,0.88,3.37,-4.15
2.323,1.81,-0.41,-3.13,0.82,3.2,-4.12
2.325,1.81,-0.41,-3.13,0.79,3.04,-4.08
2.327,1.81,-0.41,-3.13,0.76,2.89,-4.02
2.33,1.81,-0.41,-3.13,0.75,2.8,-4
2.345,1.81,-0.41,-3.13,0.75,2.64,-3.93
2.345,1.81,-0.41,-3.13,0.98,2.14,-3.4
2.345,1.81,-0.41,-3.13,1.02,2.09,-3.32
2.346,1.81,-0.41,-3.13,1.06,2.03,-3.24
2.346,1.81,-0.41,-3.13,1.06,2.03,-3.24
2.346,1.81,-0.41,-3.13,1.11,1.94,-3.16
2.346,1.81,-0.41,-3.13,1.11,1.94,-3.16
2.347,-1.11,1.42,2.54,1.11,1.94,-3.16
2.347,-0.71,1.96,2.99,1.11,1.94,-3.16
2.347,-0.54,2.21,3.19,1.11,1.94,-3.16
2.347,-0.54,2.21,3.19,1.15,1.82,-3.09
2.348,-0.54,2.21,3.19,1.24,1.58,-2.94
2.353,-0.54,2.21,3.19,1.33,1.33,-2.81
2.354,-0.54,2.21,3.19,1.37,1.2,-2.75
2.354,-2.33,2.18,2.66,1.37,1.2,-2.75
2.355,-2.33,2.18,2.66,1.45,0.93,-2.64
2.355,-2.33,2.18,2.66,1.51,0.67,-2.57
2.358,-2.33,2.18,2.66,1.54,0.54,-2.55
2.361,-2.33,2.18,2.66,1.57,0.29,-2.53
2.364,-2.33,2.18,2.66,1.57,0.02,-2.54
2.365,0.55,1.03,0.72,1.57,0.02,-2.54
2.365,0.55,1.03,0.72,1.55,-0.24,-2.56
2.368,0.55,1.03,0.72,1.53,-0.38,-2.57
2.369,0.55,1.03,0.72,1.48,-0.68,-2.62
2.37,0.55,1.03,0.72,1.41,-0.97,-2.67
2.386,0.55,1.03,0.72,1.32,-1.24,-2.72
2.387,0.55,1.03,0.72,0.85,-2.3,-2.94
2.387,0.55,1.03,0.72,0.85,-2.3,-2.94
2.387,0.55,1.03,0.72,0.85,-2.3,-2.94
2.387,0.55,1.03,0.72,0.77,-2.44,-2.97
2.387,0.55,1.03,0.72,0.7,-2.58,-3
2.388,0.55,1.03,0.72,0.7,-2.58,-3
2.388,5.91,-1.61,-4.02,0.7,-2.58,-3
2.388,5.87,-1.19,-4.29,0.7,-2.58,-3
2.388,5.81,-0.96,-4.5,0.7,-2.58,-3
2.389,5.81,-0.96,-4.5,0.54,-2.87,-3.05
2.389,5.81,-0.96,-4.5,0.46,-3.02,-3.06
2.389,5.81,-0.96,-4.5,0.3,-3.31,-3.09
2.393,5.81,-0.96,-4.5,0.15,-3.6,-3.1
2.393,5.74,-1.5,-4.64,0.15,-3.6,-3.1
2.393,5.74,-1.5,-4.64,0,-3.87,-3.1
2.395,5.74,-1.5,-4.64,-0.07,-3.99,-3.1
2.397,5.74,-1.5,-4.64,-0.19,-4.23,-3.09
2.4,5.74,-1.5,-4.64,-0.3,-4.45,-3.07
2.403,5.74,-1.5,-4.64,-0.34,-4.55,-3.05
2.403,3.58,-0.85,-3.57,-0.34,-4.55,-3.05
2.403,3.58,-0.85,-3.57,-0.42,-4.75,-3.01
2.405,3.58,-0.85,-3.57,-0.48,-4.91,-2.96
2.408,3.58,-0.85,-3.57,-0.55,-5.06,-2.9
2.409,3.58,-0.85,-3.57,-0.58,-5.15,-2.87
2.425,3.58,-0.85,-3.57,-0.63,-5.35,-2.76
2.426,3.58,-0.85,-3.57,-0.58,-6.53,-1.92
2.426,3.58,-0.85,-3.57,-0.58,-6.53,-1.92
2.426,3.58,-0.85,-3.57,-0.59,-6.68,-1.81
2.426,3.58,-0.85,-3.57,-0.6,-6.81,-1.71
2.427,3.58,-0.85,-3.57,-0.6,-6.81,-1.71
2.427,3.58,-0.85,-3.57,-0.63,-6.95,-1.61
2.427,-7.26,2.76,1.97,-0.63,-6.95,-1.61
2.427,-7.88,3.2,0.98,-0.63,-6.95,-1.61
2.428,-7.88,3.2,0.98,-0.67,-7.08,-1.53
2.428,-7.88,3.2,0.98,-0.75,-7.35,-1.37
2.43,-7.88,3.2,0.98,-0.82,-7.65,-1.23
2.433,-7.88,3.2,0.98,-0.85,-7.81,-1.16
2.434,-6.7,2.22,1.87,-0.85,-7.81,-1.16
2.435,-6.7,2.22,1.87,-0.93,-8.13,-1.04
2.435,-6.7,2.22,1.87,-1.04,-8.45,-0.93
2.44,-6.7,2.22,1.87,-1.15,-8.74,-0.84
2.441,-6.7,2.22,1.87,-1.21,-8.87,-0.8
2.442,-6.7,2.22,1.87,-1.35,-9.12,-0.71
2.442,-4.28,0.8,0.16,-1.35,-9.12,-0.71
2.443,-4.28,0.8,0.16,-1.49,-9.34,-0.63
2.445,-4.28,0.8,0.16,-1.57,-9.44,-0.59
2.447,-4.28,0.8,0.16,-1.74,-9.61,-0.5
2.449,-4.28,0.8,0.16,-1.91,-9.77,-0.42
2.467,-4.28,0.8,0.16,-2.08,-9.9,-0.33
2.468,-4.28,0.8,0.16,-2.71,-10.31,0.03
2.469,-4.28,0.8,0.16,-2.79,-10.32,0.08
2.469,-4.28,0.8,0.16,-2.87,-10.29,0.12
2.47,-4.28,0.8,0.16,-2.87,-10.29,0.12
2.47,-4.28,0.8,0.16,-2.87,-10.29,0.12
2.47,-4.28,0.8,0.16,-2.87,-10.29,0.12
2.471,1.61,-0.14,-2.44,-2.87,-10.29,0.12
2.471,0.87,0.03,-3.07,-2.87,-10.29,0.12
2.471,0.04,0.25,-3.64,-2.87,-10.29,0.12
2.472,0.04,0.25,-3.64,-3.03,-10.08,0.21
2.472,0.04,0.25,-3.64,-3.12,-9.88,0.25
2.472,0.04,0.25,-3.64,-3.24,-9.42,0.32
2.473,0.04,0.25,-3.64,-3.26,-9.04,0.39
2.473,0.04,0.25,-3.64,-3.19,-8.76,0.47
2.473,1.92,1.34,2.2,-3.19,-8.76,0.47
2.475,1.92,1.34,2.2,-3.14,-8.64,0.52
2.478,1.92,1.34,2.2,-2.98,-8.43,0.62
2.48,1.92,1.34,2.2,-2.8,-8.17,0.69
2.484,1.92,1.34,2.2,-2.61,-7.84,0.72
2.484,1.92,1.34,2.2,-2.51,-7.65,0.73
2.484,2.16,3.44,4.63,-2.51,-7.65,0.73
2.485,2.16,3.44,4.63,-2.32,-7.25,0.75
2.487,2.16,3.44,4.63,-2.14,-6.85,0.76
2.489,2.16,3.44,4.63,-2.06,-6.65,0.76
2.503,2.16,3.44,4.63,-1.89,-6.2,0.77
2.503,2.16,3.44,4.63,-1.17,-3.49,0.78
2.504,2.16,3.44,4.63,-1.17,-3.49,0.78
2.504,2.16,3.44,4.63,-1.17,-3.49,0.78
2.504,2.16,3.44,4.63,-1.07,-3.25,0.77
2.505,2.16,3.44,4.63,-1.07,-3.25,0.77
2.505,3.48,1.33,5.13,-1.07,-3.25,0.77
2.505,2.92,1.48,4.94,-1.07,-3.25,0.77
2.505,2.92,1.48,4.94,-0.86,-2.92,0.75
2.506,2.92,1.48,4.94,-0.76,-2.81,0.73
2.508,2.92,1.48,4.94,-0.56,-2.66,0.69
2.509,2.92,1.48,4.94,-0.36,-2.58,0.65
2.514,2.92,1.48,4.94,-0.17,-2.55,0.62
2.514,6.28,0.18,2.9,-0.17,-2.55,0.62
2.514,6.28,0.18,2.9,-0.07,-2.5,0.58
2.515,6.28,0.18,2.9,0.12,-2.43,0.53
2.518,6.28,0.18,2.9,0.32,-2.35,0.48
2.52,6.28,0.18,2.9,0.41,-2.31,0.45
2.522,6.28,0.18,2.9,0.6,-2.23,0.4
2.523,5.63,-0.88,2.22,0.6,-2.23,0.4
2.523,5.63,-0.88,2.22,0.78,-2.17,0.35
2.525,5.63,-0.88,2.22,0.97,-2.13,0.3
2.527,5.63,-0.88,2.22,1.06,-2.11,0.27
2.53,5.63,-0.88,2.22,1.24,-2.07,0.22
2.545,5.63,-0.88,2.22,1.42,-2.04,0.17
2.546,5.63,-0.88,2.22,2.23,-1.86,0.08
2.546,5.63,-0.88,2.22,2.23,-1.86,0.08
2.546,5.63,-0.88,2.22,2.23,-1.86,0.08
2.546,5.63,-0.88,2.22,2.35,-1.86,0.1
2.547,5.63,-0.88,2.22,2.47,-1.86,0.11
2.547,5.63,-0.88,2.22,2.47,-1.86,0.11
2.547,0.71,0,3.85,2.47,-1.86,0.11
2.548,0.34,-0.35,3.73,2.47,-1.86,0.11
2.548,0.17,-0.58,3.68,2.47,-1.86,0.11
2.548,0.17,-0.58,3.68,2.71,-1.86,0.16
2.548,0.17,-0.58,3.68,2.96,-1.86,0.21
2.55,0.17,-0.58,3.68,3.09,-1.86,0.23
2.553,0.17,-0.58,3.68,3.09,-1.86,0.23
2.553,0.17,-0.58,3.68,3.35,-1.86,0.3
2.554,0.17,-0.58,3.68,3.61,-1.87,0.36
2.555,0.17,-0.58,3.68,3.87,-1.9,0.39
2.558,0.17,-0.58,3.68,4,-1.91,0.45
2.559,0.17,-0.58,3.68,4.26,-1.95,0.52
2.563,0.17,-0.58,3.68,4.52,-2,0.58
2.566,-2.28,-0.84,5.28,4.52,-2,0.58
2.567,-2.28,-0.84,5.28,4.65,-2.04,0.6
2.567,-2.28,-0.84,5.28,4.9,-2.12,0.66
2.567,-2.28,-0.84,5.28,5.16,-2.25,0.7
2.569,-2.28,-0.84,5.28,5.42,-2.42,0.74
2.587,-2.28,-0.84,5.28,5.54,-2.52,0.75
2.588,-2.28,-0.84,5.28,6.54,-3.74,0.67
2.588,-2.28,-0.84,5.28,6.61,-3.94,0.64
2.588,-2.28,-0.84,5.28,6.66,-4.21,0.59
2.588,-2.28,-0.84,5.28,6.66,-4.21,0.59
2.589,-2.28,-0.84,5.28,6.66,-4.21,0.59
2.589,-2.28,-0.84,5.28,6.66,-4.21,0.59
2.589,-1.69,-3.91,5.95,6.66,-4.21,0.59
2.589,-2.31,-5.1,5.99,6.66,-4.21,0.59
2.59,-2.7,-5.74,6.08,6.66,-4.21,0.59
2.59,-2.7,-5.74,6.08,6.68,-4.53,0.54
2.59,-2.7,-5.74,6.08,6.66,-5.26,0.42
2.59,-2.7,-5.74,6.08,6.54,-6.07,0.28
2.594,-2.7,-5.74,6.08,6.35,-6.82,0.13
2.594,-4.27,-3,2.52,6.35,-6.82,0.13
2.594,-4.27,-3,2.52,6.25,-7.14,0.06
2.596,-4.27,-3,2.52,6.04,-7.62,-0.09
2.602,-4.27,-3,2.52,5.83,-7.9,-0.23
2.603,-4.27,-3,2.52,5.64,-8.04,-0.36
2.604,-4.27,-3,2.52,5.55,-8.08,-0.41
2.605,-4.27,-3,2.52,5.4,-8.09,-0.51
2.605,-3.5,-0.1,-0.98,5.4,-8.09,-0.51
2.605,-3.5,-0.1,-0.98,5.26,-8.02,-0.6
2.607,-3.5,-0.1,-0.98,5.21,-7.96,-0.64
2.61,-3.5,-0.1,-0.98,5.06,-7.69,-0.71
2.625,-3.5,-0.1,-0.98,4.83,-7.19,-0.77
2.626,-3.5,-0.1,-0.98,3.4,-3.96,-0.99
2.627,-3.5,-0.1,-0.98,3.4,-3.96,-0.99
2.627,-3.5,-0.1,-0.98,3.31,-3.66,-1.02
2.627,-3.5,-0.1,-0.98,3.22,-3.36,-1.05
2.627,-3.5,-0.1,-0.98,3.22,-3.36,-1.05
2.628,-3.5,-0.1,-0.98,3.22,-3.36,-1.05
2.628,-3.5,-0.1,-0.98,3.06,-2.73,-1.12
2.628,1.89,0.53,-4.07,3.06,-2.73,-1.12
2.628,1.89,0.53,-4.07,3.06,-2.73,-1.12
2.629,0.95,-0.23,-3.62,3.06,-2.73,-1.12
2.629,0.95,-0.23,-3.62,2.91,-2.09,-1.18
2.63,0.95,-0.23,-3.62,2.84,-1.79,-1.21
2.635,0.95,-0.23,-3.62,2.74,-1.26,-1.25
2.635,1.46,-1.51,-2.58,2.74,-1.26,-1.25
2.636,1.46,-1.51,-2.58,2.66,-0.82,-1.26
2.636,1.46,-1.51,-2.58,2.59,-0.45,-1.25
2.637,1.46,-1.51,-2.58,2.57,-0.28,-1.23
2.639,1.46,-1.51,-2.58,2.53,0.01,-1.19
2.642,1.46,-1.51,-2.58,2.51,0.25,-1.13
2.647,0.97,-1.62,-2.45,2.51,0.25,-1.13
2.647,0.97,-1.62,-2.45,2.5,0.46,-1.07
2.648,0.97,-1.62,-2.45,2.5,0.55,-1.04
2.649,0.97,-1.62,-2.45,2.5,0.71,-0.97
2.65,0.97,-1.62,-2.45,2.51,0.84,-0.89
2.666,0.97,-1.62,-2.45,2.52,0.9,-0.86
2.667,0.97,-1.62,-2.45,2.52,1.28,-0.61
2.667,0.97,-1.62,-2.45,2.52,1.28,-0.61
2.668,0.97,-1.62,-2.45,2.52,1.28,-0.61
2.668,0.97,-1.62,-2.45,2.51,1.3,-0.59
2.668,0.97,-1.62,-2.45,2.5,1.32,-0.57
2.668,0.97,-1.62,-2.45,2.5,1.32,-0.57
2.668,0.04,-0.5,-1.95,2.5,1.32,-0.57
2.668,0.29,-0.94,-1.74,2.5,1.32,-0.57
2.668,0.43,-1.15,-1.63,2.5,1.32,-0.57
2.669,0.43,-1.15,-1.63,2.47,1.35,-0.53
2.669,0.43,-1.15,-1.63,2.46,1.36,-0.51
2.67,0.43,-1.15,-1.63,2.41,1.38,-0.46
2.672,0.43,-1.15,-1.63,2.37,1.4,-0.43
2.672,0.21,-1.24,-1.67,2.37,1.4,-0.43
2.673,0.21,-1.24,-1.67,2.35,1.41,-0.41
2.675,0.21,-1.24,-1.67,2.3,1.42,-0.36
2.677,0.21,-1.24,-1.67,2.25,1.42,-0.33
2.679,0.21,-1.24,-1.67,2.21,1.4,-0.3
2.684,0.21,-1.24,-1.67,2.19,1.38,-0.28
2.684,0.29,-1.4,-1.51,2.19,1.38,-0.28
2.684,0.29,-1.4,-1.51,2.15,1.31,-0.25
2.685,0.29,-1.4,-1.51,2.12,1.22,-0.23
2.688,0.29,-1.4,-1.51,2.09,1.11,-0.22
2.69,0.29,-1.4,-1.51,2.07,1.06,-0.21
2.706,0.29,-1.4,-1.51,2.04,0.95,-0.19
2.707,0.29,-1.4,-1.51,1.99,0.46,-0.13
2.707,0.29,-1.4,-1.51,2,0.4,-0.12
2.707,0.29,-1.4,-1.51,2.01,0.33,-0.12
2.707,0.29,-1.4,-1.51,2.01,0.33,-0.12
2.708,0.29,-1.4,-1.51,2.02,0.26,-0.11
2.708,0.29,-1.4,-1.51,2.02,0.26,-0.11
2.708,0.29,-1.4,-1.51,2.04,0.2,-0.11
2.708,0.48,-0.84,-0.43,2.04,0.2,-0.11
2.709,0.6,-1.15,-0.21,2.04,0.2,-0.11
2.709,0.6,-1.15,-0.21,2.08,0.06,-0.11
2.71,0.6,-1.15,-0.21,2.13,-0.07,-0.11
2.718,0.6,-1.15,-0.21,2.16,-0.13,-0.11
2.72,0.6,-1.15,-0.21,2.22,-0.25,-0.12
2.72,1.21,-0.61,1.51,2.22,-0.25,-0.12
2.72,1.21,-0.61,1.51,2.28,-0.37,-0.13
2.72,1.21,-0.61,1.51,2.31,-0.42,-0.13
2.72,1.21,-0.61,1.51,2.37,-0.52,-0.14
2.722,1.21,-0.61,1.51,2.44,-0.61,-0.16
2.723,0.38,-0.62,1.67,2.44,-0.61,-0.16
2.723,0.38,-0.62,1.67,2.51,-0.64,-0.17
2.726,0.38,-0.62,1.67,2.54,-0.64,-0.18
2.727,0.38,-0.62,1.67,2.61,-0.59,-0.21
2.729,0.38,-0.62,1.67,2.66,-0.52,-0.22
2.745,0.38,-0.62,1.67,2.69,-0.45,-0.22
2.746,0.38,-0.62,1.67,2.67,-0.46,-0.1
2.746,0.38,-0.62,1.67,2.67,-0.46,-0.1
2.746,0.38,-0.62,1.67,2.67,-0.46,-0.1
2.746,0.38,-0.62,1.67,2.64,-0.47,-0.09
2.747,0.38,-0.62,1.67,2.61,-0.48,-0.06
2.747,0.38,-0.62,1.67,2.61,-0.48,-0.06
2.747,0.38,-0.62,1.67,2.51,-0.5,-0.01
2.747,-1.35,-1.04,-2.51,2.51,-0.5,-0.01
2.747,-1.4,-1.41,-2.13,2.51,-0.5,-0.01
2.748,-1.42,-1.59,-1.93,2.51,-0.5,-0.01
2.748,-1.42,-1.59,-1.93,2.44,-0.5,0.01
2.752,-1.42,-1.59,-1.93,2.3,-0.51,0.07
2.753,-1.42,-1.59,-1.93,2.3,-0.51,0.07
2.753,-1.42,-1.59,-1.93,2.15,-0.51,0.14
2.754,-1.42,-1.59,-1.93,1.99,-0.51,0.19
2.758,-1.42,-1.59,-1.93,1.91,-0.5,0.22
2.759,-1.42,-1.59,-1.93,1.77,-0.47,0.27
2.76,-1.42,-1.59,-1.93,1.65,-0.41,0.3
2.763,-1.42,-1.59,-1.93,1.58,-0.39,0.31
2.764,0.17,-1.57,-4,1.58,-0.39,0.31
2.767,0.17,-1.57,-4,1.48,-0.32,0.32
2.768,0.17,-1.57,-4,1.37,-0.23,0.3
2.768,0.17,-1.57,-4,1.26,-0.13,0.27
2.769,0.17,-1.57,-4,1.22,-0.08,0.24
2.785,0.17,-1.57,-4,1.13,0.02,0.2
2.786,0.17,-1.57,-4,0.84,0.29,0.06
2.786,0.17,-1.57,-4,0.84,0.29,0.06
2.786,0.17,-1.57,-4,0.84,0.29,0.06
2.786,0.17,-1.57,-4,0.81,0.3,0.05
2.787,0.17,-1.57,-4,0.79,0.31,0.04
2.787,0.17,-1.57,-4,0.79,0.31,0.04
2.787,1.99,-1.06,-1.64,0.79,0.31,0.04
2.787,1.98,-1.18,-1.5,0.79,0.31,0.04
2.787,2,-1.23,-1.44,0.79,0.31,0.04
2.788,2,-1.23,-1.44,0.74,0.33,0.03
2.788,2,-1.23,-1.44,0.7,0.33,0.02
2.789,2,-1.23,-1.44,0.67,0.33,0.01
2.792,2,-1.23,-1.44,0.66,0.33,0.02
2.792,1.46,-0.71,-0.42,0.66,0.33,0.02
2.793,1.46,-0.71,-0.42,0.64,0.31,0.02
2.795,1.46,-0.71,-0.42,0.62,0.3,0.03
2.797,1.46,-0.71,-0.42,0.61,0.31,0.03
2.799,1.46,-0.71,-0.42,0.6,0.32,0.04
2.802,1.46,-0.71,-0.42,0.6,0.32,0.04
2.803,1.23,-1.19,0.31,0.6,0.32,0.04
2.808,1.23,-1.19,0.31,0.61,0.33,0.05
2.808,1.23,-1.19,0.31,0.62,0.33,0.05
2.809,1.23,-1.19,0.31,0.64,0.34,0.05
2.809,1.23,-1.19,0.31,0.66,0.35,0.04
2.825,1.23,-1.19,0.31,0.69,0.35,0.02
2.825,1.23,-1.19,0.31,0.77,0.35,-0.16
2.826,1.23,-1.19,0.31,0.78,0.35,-0.18
2.826,1.23,-1.19,0.31,0.8,0.35,-0.21
2.826,1.23,-1.19,0.31,0.8,0.35,-0.21
2.827,1.23,-1.19,0.31,0.8,0.35,-0.21
2.827,1.23,-1.19,0.31,0.8,0.35,-0.21
2.827,4.79,-2.37,0.24,0.8,0.35,-0.21
2.828,4.81,-2.41,0.29,0.8,0.35,-0.21
2.828,4.84,-2.45,0.34,0.8,0.35,-0.21
2.828,4.84,-2.45,0.34,0.82,0.33,-0.26
2.829,4.84,-2.45,0.34,0.84,0.32,-0.29
2.829,4.84,-2.45,0.34,0.86,0.3,-0.33
2.832,4.84,-2.45,0.34,0.89,0.28,-0.36
2.833,3.35,-1.96,0.56,0.89,0.28,-0.36
2.835,3.35,-1.96,0.56,0.91,0.25,-0.38
2.835,3.35,-1.96,0.56,0.93,0.23,-0.38
2.837,3.35,-1.96,0.56,0.95,0.2,-0.39
2.839,3.35,-1.96,0.56,0.98,0.18,-0.39
2.842,3.35,-1.96,0.56,1,0.16,-0.39
2.842,1.72,-0.96,0.65,1,0.16,-0.39
2.843,1.72,-0.96,0.65,1.01,0.15,-0.39
2.845,1.72,-0.96,0.65,1.03,0.13,-0.38
2.852,1.72,-0.96,0.65,1.03,0.12,-0.38
2.852,1.72,-0.96,0.65,1.04,0.11,-0.38
2.868,1.72,-0.96,0.65,1.05,0.1,-0.37
2.869,1.72,-0.96,0.65,1.04,0.07,-0.35
2.869,1.72,-0.96,0.65,1.04,0.07,-0.35
2.87,1.72,-0.96,0.65,1.04,0.07,-0.35
2.87,1.72,-0.96,0.65,1.03,0.07,-0.35
2.87,1.72,-0.96,0.65,1.03,0.07,-0.35
2.87,1.72,-0.96,0.65,1.02,0.08,-0.35
2.87,1.43,-0.49,-0.35,1.02,0.08,-0.35
2.871,1.5,-0.61,-0.18,1.02,0.08,-0.35
2.871,1.5,-0.61,-0.18,1.01,0.1,-0.35
2.871,1.5,-0.61,-0.18,0.99,0.13,-0.34
2.871,1.5,-0.61,-0.18,0.96,0.16,-0.34
2.873,1.5,-0.61,-0.18,0.95,0.18,-0.33
2.873,1.5,-0.61,-0.18,0.92,0.23,-0.32
2.873,0.8,-0.6,-0.75,0.92,0.23,-0.32
2.875,0.8,-0.6,-0.75,0.89,0.28,-0.3
2.877,0.8,-0.6,-0.75,0.85,0.33,-0.28
2.879,0.8,-0.6,-0.75,0.83,0.36,-0.27
2.885,0.8,-0.6,-0.75,0.77,0.42,-0.24
2.885,-0.1,-0.29,-1.68,0.77,0.42,-0.24
2.886,-0.1,-0.29,-1.68,0.71,0.47,-0.2
2.886,-0.1,-0.29,-1.68,0.64,0.53,-0.16
2.887,-0.1,-0.29,-1.68,0.6,0.55,-0.14
2.889,-0.1,-0.29,-1.68,0.52,0.6,-0.1
2.904,-0.1,-0.29,-1.68,0.43,0.64,-0.06
2.905,-0.1,-0.29,-1.68,0.1,0.8,0.05
2.905,-0.1,-0.29,-1.68,0.1,0.8,0.05
2.906,-0.1,-0.29,-1.68,0.1,0.8,0.05
2.906,-0.1,-0.29,-1.68,0.07,0.82,0.06
2.906,-0.1,-0.29,-1.68,0.04,0.84,0.07
2.906,-0.1,-0.29,-1.68,0.04,0.84,0.07
2.907,0.14,0.16,-0.87,0.04,0.84,0.07
2.907,0.21,0.13,-0.84,0.04,0.84,0.07
2.907,0.21,0.13,-0.84,-0.01,0.89,0.08
2.907,0.21,0.13,-0.84,-0.05,0.96,0.1
2.909,0.21,0.13,-0.84,-0.06,1.01,0.11
2.912,0.21,0.13,-0.84,-0.05,1.11,0.14
2.912,-0.15,0.02,1.99,-0.05,1.11,0.14
2.913,-0.15,0.02,1.99,-0.02,1.23,0.17
2.915,-0.15,0.02,1.99,0,1.29,0.19
2.917,-0.15,0.02,1.99,0.05,1.41,0.23
2.919,-0.15,0.02,1.99,0.09,1.52,0.27
2.922,-0.15,0.02,1.99,0.14,1.62,0.3
2.922,0.52,0.14,3.26,0.14,1.62,0.3
2.923,0.52,0.14,3.26,0.16,1.67,0.32
2.925,0.52,0.14,3.26,0.2,1.76,0.35
2.927,0.52,0.14,3.26,0.24,1.87,0.38
2.929,0.52,0.14,3.26,0.26,2.04,0.45
2.945,0.52,0.14,3.26,0.28,2.11,0.48
2.946,0.52,0.14,3.26,0.41,2.55,0.71
2.946,0.52,0.14,3.26,0.41,2.6,0.72
2.946,0.52,0.14,3.26,0.41,2.65,0.71
2.947,0.52,0.14,3.26,0.41,2.65,0.71
2.947,0.52,0.14,3.26,0.41,2.65,0.71
2.947,0.52,0.14,3.26,0.41,2.65,0.71
2.948,0.85,-0.37,2,0.41,2.65,0.71
2.948,0.92,-0.38,2.01,0.41,2.65,0.71
2.948,1,-0.4,2.02,0.41,2.65,0.71
2.949,1,-0.4,2.02,0.4,2.7,0.7
2.949,1,-0.4,2.02,0.38,2.79,0.68
2.949,1,-0.4,2.02,0.36,2.84,0.65
2.956,1,-0.4,2.02,0.34,2.86,0.61
2.956,1,-0.4,2.02,0.33,2.86,0.59
2.956,2.26,-1.44,1.35,0.33,2.86,0.59
2.956,2.26,-1.44,1.35,0.32,2.85,0.55
2.957,2.26,-1.44,1.35,0.31,2.83,0.51
2.959,2.26,-1.44,1.35,0.31,2.82,0.49
2.962,2.26,-1.44,1.35,0.31,2.78,0.47
2.963,2.47,-0.56,1.31,0.31,2.78,0.47
2.967,2.47,-0.56,1.31,0.31,2.73,0.45
2.968,2.47,-0.56,1.31,0.31,2.66,0.44
2.97,2.47,-0.56,1.31,0.3,2.63,0.44
2.971,2.47,-0.56,1.31,0.29,2.54,0.44
2.985,2.47,-0.56,1.31,0.28,2.44,0.45
2.985,2.47,-0.56,1.31,0.23,2.06,0.46
2.986,2.47,-0.56,1.31,0.23,2.06,0.46
2.986,2.47,-0.56,1.31,0.23,2.06,0.46
2.986,2.47,-0.56,1.31,0.22,2.01,0.46
2.987,2.47,-0.56,1.31,0.22,1.96,0.45
2.987,2.47,-0.56,1.31,0.22,1.96,0.45
2.987,1.31,1.52,0.3,0.22,1.96,0.45
2.988,1.47,1.49,0.32,0.22,1.96,0.45
2.988,1.54,1.48,0.33,0.22,1.96,0.45
2.989,1.54,1.48,0.33,0.22,1.86,0.44
2.989,1.54,1.48,0.33,0.22,1.76,0.42
2.989,1.54,1.48,0.33,0.22,1.71,0.41
2.992,1.54,1.48,0.33,0.22,1.6,0.4
2.993,1.78,0.28,0.18,0.22,1.6,0.4
2.993,1.78,0.28,0.18,0.22,1.5,0.37
2.995,1.78,0.28,0.18,0.21,1.43,0.31
2.997,1.78,0.28,0.18,0.21,1.39,0.28
2.999,1.78,0.28,0.18,0.2,1.3,0.2
3.002,1.78,0.28,0.18,0.2,1.18,0.13
3.002,3.87,-2.31,-0.43,0.2,1.18,0.13
3.003,3.87,-2.31,-0.43,0.19,1.12,0.1
3.005,3.87,-2.31,-0.43,0.18,0.99,0.06
3.007,3.87,-2.31,-0.43,0.17,0.85,0.03
3.009,3.87,-2.31,-0.43,0.17,0.71,0.02
3.024,3.87,-2.31,-0.43,0.16,0.65,0.02
3.024,3.87,-2.31,-0.43,0.19,0.35,0.07
3.025,3.87,-2.31,-0.43,0.19,0.35,0.07
3.025,3.87,-2.31,-0.43,0.19,0.35,0.07
3.025,3.87,-2.31,-0.43,0.2,0.33,0.08
3.025,3.87,-2.31,-0.43,0.21,0.32,0.1
3.025,3.87,-2.31,-0.43,0.21,0.32,0.1
3.026,-0.43,0.41,0.59,0.21,0.32,0.1
3.026,-0.38,0.4,0.62,0.21,0.32,0.1
3.026,-0.37,0.38,0.64,0.21,0.32,0.1
3.026,-0.37,0.38,0.64,0.22,0.29,0.11
3.027,-0.37,0.38,0.64,0.23,0.26,0.15
3.029,-0.37,0.38,0.64,0.25,0.2,0.18
3.032,-0.37,0.38,0.64,0.26,0.14,0.23
3.032,-0.56,0.67,0.97,0.26,0.14,0.23
3.034,-0.56,0.67,0.97,0.26,0.1,0.25
3.035,-0.56,0.67,0.97,0.27,0.03,0.28
3.037,-0.56,0.67,0.97,0.29,-0.06,0.32
3.039,-0.56,0.67,0.97,0.29,-0.14,0.35
3.042,-0.56,0.67,0.97,0.3,-0.18,0.36
3.042,0.38,-0.26,0.49,0.3,-0.18,0.36
3.043,0.38,-0.26,0.49,0.31,-0.24,0.37
3.045,0.38,-0.26,0.49,0.32,-0.29,0.37
3.047,0.38,-0.26,0.49,0.32,-0.32,0.37
3.05,0.38,-0.26,0.49,0.33,-0.36,0.36
3.065,0.38,-0.26,0.49,0.35,-0.39,0.34
3.065,0.38,-0.26,0.49,0.46,-0.45,0.25
3.066,0.38,-0.26,0.49,0.46,-0.45,0.25
3.066,0.38,-0.26,0.49,0.46,-0.46,0.23
3.067,0.38,-0.26,0.49,0.46,-0.46,0.23
3.067,0.38,-0.26,0.49,0.48,-0.47,0.23
3.068,0.38,-0.26,0.49,0.48,-0.47,0.23
3.068,2,-0.71,1.36,0.48,-0.47,0.23
3.069,1.95,-0.73,1.39,0.48,-0.47,0.23
3.069,1.91,-0.75,1.43,0.48,-0.47,0.23
3.07,1.91,-0.75,1.43,0.49,-0.48,0.22
3.07,1.91,-0.75,1.43,0.52,-0.51,0.21
3.071,1.91,-0.75,1.43,0.53,-0.52,0.2
3.073,1.91,-0.75,1.43,0.55,-0.55,0.19
3.073,1.8,-0.7,1.64,0.55,-0.55,0.19
3.073,1.8,-0.7,1.64,0.58,-0.57,0.18
3.075,1.8,-0.7,1.64,0.6,-0.6,0.17
3.077,1.8,-0.7,1.64,0.62,-0.61,0.17
3.079,1.8,-0.7,1.64,0.64,-0.63,0.17
3.086,1.8,-0.7,1.64,0.66,-0.64,0.17
3.086,1.2,-0.59,1.47,0.66,-0.64,0.17
3.086,1.2,-0.59,1.47,0.68,-0.64,0.17
3.087,1.2,-0.59,1.47,0.68,-0.64,0.17
3.088,1.2,-0.59,1.47,0.69,-0.63,0.17
3.093,1.2,-0.59,1.47,0.7,-0.62,0.17
3.105,1.2,-0.59,1.47,0.69,-0.62,0.18
3.106,1.2,-0.59,1.47,0.61,-0.54,0.21
3.106,1.2,-0.59,1.47,0.59,-0.52,0.22
3.106,1.2,-0.59,1.47,0.59,-0.52,0.22
3.107,1.2,-0.59,1.47,0.59,-0.52,0.22
3.107,1.2,-0.59,1.47,0.59,-0.52,0.22
3.107,1.2,-0.59,1.47,0.56,-0.49,0.23
3.107,0.77,-0.67,-0.31,0.56,-0.49,0.23
3.107,0.67,-0.73,-0.2,0.56,-0.49,0.23
3.108,0.67,-0.73,-0.2,0.52,-0.46,0.24
3.108,0.67,-0.73,-0.2,0.49,-0.44,0.24
3.109,0.67,-0.73,-0.2,0.45,-0.41,0.25
3.112,0.67,-0.73,-0.2,0.41,-0.37,0.25
3.113,1.18,-0.63,-0.61,0.41,-0.37,0.25
3.113,1.18,-0.63,-0.61,0.39,-0.34,0.25
3.115,1.18,-0.63,-0.61,0.34,-0.29,0.25
3.118,1.18,-0.63,-0.61,0.3,-0.24,0.24
3.119,1.18,-0.63,-0.61,0.26,-0.2,0.24
3.124,1.18,-0.63,-0.61,0.23,-0.18,0.23
3.125,1.18,-0.63,-0.61,0.2,-0.14,0.22
3.125,1.52,-0.55,-0.59,0.2,-0.14,0.22
3.125,1.52,-0.55,-0.59,0.15,-0.1,0.21
3.127,1.52,-0.55,-0.59,0.12,-0.08,0.19
3.129,1.52,-0.55,-0.59,0.11,-0.06,0.18
3.145,1.52,-0.55,-0.59,0.07,-0.03,0.17
3.145,1.52,-0.55,-0.59,-0.01,0.06,0.08
3.145,1.52,-0.55,-0.59,-0.02,0.07,0.07
3.145,1.52,-0.55,-0.59,-0.02,0.07,0.07
3.146,1.52,-0.55,-0.59,-0.02,0.08,0.06
3.146,1.52,-0.55,-0.59,-0.02,0.08,0.06
3.146,1.52,-0.55,-0.59,-0.03,0.09,0.05
3.146,2.08,-0.63,0.44,-0.03,0.09,0.05
3.147,2.06,-0.63,0.45,-0.03,0.09,0.05
3.147,2.05,-0.63,0.44,-0.03,0.09,0.05
3.147,2.05,-0.63,0.44,-0.03,0.1,0.04
3.147,2.05,-0.63,0.44,-0.04,0.12,0.02
3.153,2.05,-0.63,0.44,-0.04,0.13,0.01
3.153,2.05,-0.63,0.44,-0.04,0.14,0
3.153,1.87,-0.67,0.8,-0.04,0.14,0
3.153,1.87,-0.67,0.8,-0.05,0.14,-0.01
3.157,1.87,-0.67,0.8,-0.05,0.14,-0.02
3.159,1.87,-0.67,0.8,-0.05,0.14,-0.03
3.159,1.87,-0.67,0.8,-0.05,0.13,-0.04
3.162,1.87,-0.67,0.8,-0.05,0.12,-0.04
3.162,1.62,-0.65,1.08,-0.05,0.12,-0.04
3.163,1.62,-0.65,1.08,-0.05,0.09,-0.05
3.165,1.62,-0.65,1.08,-0.04,0.08,-0.06
3.167,1.62,-0.65,1.08,-0.04,0.06,-0.06
3.169,1.62,-0.65,1.08,-0.03,0.03,-0.07
3.184,1.62,-0.65,1.08,-0.02,0,-0.07
3.185,1.62,-0.65,1.08,0.02,-0.14,-0.08
3.185,1.62,-0.65,1.08,0.03,-0.16,-0.08
3.185,1.62,-0.65,1.08,0.03,-0.17,-0.08
3.185,1.62,-0.65,1.08,0.03,-0.17,-0.08
3.185,1.62,-0.65,1.08,0.03,-0.17,-0.08
3.186,1.62,-0.65,1.08,0.03,-0.17,-0.08
3.186,1.23,-0.63,1.19,0.03,-0.17,-0.08
3.186,1.23,-0.63,1.19,0.03,-0.17,-0.08
3.186,1.22,-0.63,1.19,0.03,-0.17,-0.08
3.186,1.22,-0.63,1.19,0.05,-0.21,-0.09
3.187,1.22,-0.63,1.19,0.06,-0.23,-0.09
3.189,1.22,-0.63,1.19,0.07,-0.26,-0.09
3.192,1.22,-0.63,1.19,0.09,-0.29,-0.09
3.192,1.2,-0.77,1.16,0.09,-0.29,-0.09
3.193,1.2,-0.77,1.16,0.1,-0.32,-0.1
3.195,1.2,-0.77,1.16,0.11,-0.34,-0.1
3.199,1.2,-0.77,1.16,0.12,-0.36,-0.1
3.199,1.2,-0.77,1.16,0.14,-0.38,-0.1
3.202,1.2,-0.77,1.16,0.14,-0.39,-0.11
3.202,1.14,-0.84,1,0.14,-0.39,-0.11
3.203,1.14,-0.84,1,0.15,-0.41,-0.11
3.205,1.14,-0.84,1,0.16,-0.42,-0.11
3.207,1.14,-0.84,1,0.17,-0.43,-0.11
3.209,1.14,-0.84,1,0.17,-0.43,-0.11
3.225,1.14,-0.84,1,0.17,-0.42,-0.1
3.225,1.14,-0.84,1,0.17,-0.35,-0.07
3.226,1.14,-0.84,1,0.17,-0.35,-0.07
3.226,1.14,-0.84,1,0.16,-0.33,-0.07
3.226,1.14,-0.84,1,0.16,-0.33,-0.07
3.226,1.14,-0.84,1,0.15,-0.32,-0.07
3.227,1.14,-0.84,1,0.14,-0.3,-0.07
3.227,0.93,-0.73,0.55,0.14,-0.3,-0.07
3.227,0.89,-0.74,0.57,0.14,-0.3,-0.07
3.227,0.89,-0.74,0.57,0.13,-0.29,-0.06
3.227,0.89,-0.74,0.57,0.11,-0.25,-0.06
3.229,0.89,-0.74,0.57,0.09,-0.21,-0.06
3.233,0.89,-0.74,0.57,0.07,-0.19,-0.06
3.233,0.83,-0.75,0.33,0.07,-0.19,-0.06
3.233,0.83,-0.75,0.33,0.05,-0.15,-0.06
3.235,0.83,-0.75,0.33,0.02,-0.1,-0.05
3.237,0.83,-0.75,0.33,0,-0.07,-0.05
3.239,0.83,-0.75,0.33,-0.01,-0.05,-0.04
3.242,0.83,-0.75,0.33,-0.03,-0.01,-0.04
3.242,0.9,-0.66,0.47,-0.03,-0.01,-0.04
3.243,0.9,-0.66,0.47,-0.05,0.03,-0.04
3.245,0.9,-0.66,0.47,-0.06,0.04,-0.04
3.248,0.9,-0.66,0.47,-0.08,0.08,-0.03
3.249,0.9,-0.66,0.47,-0.1,0.12,-0.03
3.267,0.9,-0.66,0.47,-0.12,0.16,-0.03
3.267,0.9,-0.66,0.47,-0.15,0.29,-0.02
3.268,0.9,-0.66,0.47,-0.15,0.29,-0.02
3.268,0.9,-0.66,0.47,-0.16,0.3,-0.02
3.269,0.9,-0.66,0.47,-0.16,0.31,-0.02
3.269,0.9,-0.66,0.47,-0.16,0.31,-0.02
3.269,0.9,-0.66,0.47,-0.16,0.31,-0.02
3.269,0.9,-0.66,0.47,-0.16,0.34,-0.01
3.27,0.81,-0.97,1.32,-0.16,0.34,-0.01
3.27,0.82,-0.95,1.29,-0.16,0.34,-0.01
3.27,0.83,-0.94,1.27,-0.16,0.34,-0.01
3.271,0.83,-0.94,1.27,-0.15,0.34,-0.01
3.271,0.83,-0.94,1.27,-0.15,0.36,0
3.272,0.83,-0.94,1.27,-0.14,0.37,0
3.272,0.89,-0.91,2.01,-0.14,0.37,0
3.273,0.89,-0.91,2.01,-0.12,0.37,0
3.275,0.89,-0.91,2.01,-0.11,0.37,0
3.277,0.89,-0.91,2.01,-0.09,0.37,-0.01
3.279,0.89,-0.91,2.01,-0.06,0.36,-0.01
3.285,0.89,-0.91,2.01,-0.03,0.34,-0.02
3.286,1.28,-0.9,2.44,-0.03,0.34,-0.02
3.286,1.28,-0.9,2.44,-0.01,0.34,-0.03
3.287,1.28,-0.9,2.44,0.02,0.32,-0.04
3.29,1.28,-0.9,2.44,0.05,0.29,-0.05
3.291,1.28,-0.9,2.44,0.07,0.28,-0.06
3.305,1.28,-0.9,2.44,0.1,0.25,-0.07
3.305,1.28,-0.9,2.44,0.2,0.13,-0.13
3.306,1.28,-0.9,2.44,0.2,0.13,-0.13
3.306,1.28,-0.9,2.44,0.21,0.11,-0.14
3.306,1.28,-0.9,2.44,0.21,0.11,-0.14
3.307,1.28,-0.9,2.44,0.21,0.11,-0.14
3.307,1.28,-0.9,2.44,0.21,0.11,-0.14
3.307,1.24,-0.73,1.63,0.21,0.11,-0.14
3.307,1.26,-0.73,1.63,0.21,0.11,-0.14
3.308,1.26,-0.73,1.63,0.21,0.09,-0.14
3.308,1.26,-0.73,1.63,0.22,0.07,-0.15
3.309,1.26,-0.73,1.63,0.22,0.05,-0.15
3.312,1.26,-0.73,1.63,0.22,0.04,-0.15
3.312,0.81,-0.66,0.92,0.22,0.04,-0.15
3.313,0.81,-0.66,0.92,0.22,0.02,-0.15
3.315,0.81,-0.66,0.92,0.21,0,-0.15
3.319,0.81,-0.66,0.92,0.2,-0.02,-0.14
3.32,0.81,-0.66,0.92,0.19,-0.02,-0.14
3.322,0.81,-0.66,0.92,0.18,-0.04,-0.14
3.322,0.44,-0.65,0.36,0.18,-0.04,-0.14
3.323,0.44,-0.65,0.36,0.16,-0.05,-0.13
3.325,0.44,-0.65,0.36,0.15,-0.06,-0.12
3.327,0.44,-0.65,0.36,0.14,-0.07,-0.12
3.329,0.44,-0.65,0.36,0.13,-0.08,-0.1
3.345,0.44,-0.65,0.36,0.12,-0.08,-0.09
3.345,0.44,-0.65,0.36,0.05,-0.08,-0.02
3.346,0.44,-0.65,0.36,0.05,-0.08,-0.02
3.346,0.44,-0.65,0.36,0.05,-0.08,-0.02
3.346,0.44,-0.65,0.36,0.04,-0.08,-0.01
3.347,0.44,-0.65,0.36,0.04,-0.07,0
3.347,0.44,-0.65,0.36,0.04,-0.07,0
3.347,-0.04,-0.78,0.13,0.04,-0.07,0
3.347,-0.05,-0.78,0.13,0.04,-0.07,0
3.348,-0.05,-0.78,0.13,0.03,-0.07,0.02
3.355,-0.05,-0.78,0.13,0.01,-0.06,0.04
3.355,-0.05,-0.78,0.13,0.01,-0.05,0.05
3.355,-0.05,-0.78,0.13,0,-0.05,0.07
3.355,-0.05,-0.78,0.13,-0.01,-0.04,0.08
3.356,0.15,-0.88,0.28,-0.01,-0.04,0.08
3.356,0.15,-0.88,0.28,-0.01,-0.04,0.09
3.36,0.15,-0.88,0.28,-0.02,-0.04,0.1
3.361,0.15,-0.88,0.28,-0.02,-0.03,0.11
3.362,0.15,-0.88,0.28,-0.02,-0.04,0.11
3.362,0.45,-0.79,0.59,-0.02,-0.04,0.11
3.363,0.45,-0.79,0.59,-0.02,-0.04,0.12
3.368,0.45,-0.79,0.59,-0.02,-0.04,0.12
3.368,0.45,-0.79,0.59,-0.01,-0.05,0.12
3.369,0.45,-0.79,0.59,-0.01,-0.05,0.12
3.385,0.45,-0.79,0.59,-0.01,-0.06,0.12
3.385,0.45,-0.79,0.59,0.02,-0.09,0.11
3.386,0.45,-0.79,0.59,0.01,-0.09,0.11
3.386,0.45,-0.79,0.59,0.01,-0.09,0.11
3.386,0.45,-0.79,0.59,0.02,-0.09,0.11
3.387,0.45,-0.79,0.59,0.02,-0.09,0.11
3.387,0.45,-0.79,0.59,0.02,-0.09,0.11
3.387,0.94,-0.72,0.83,0.02,-0.09,0.11
3.387,0.9,-0.72,0.82,0.02,-0.09,0.11
3.387,0.9,-0.72,0.82,0.03,-0.09,0.11
3.388,0.9,-0.72,0.82,0.04,-0.1,0.11
3.389,0.9,-0.72,0.82,0.04,-0.1,0.1
3.392,0.9,-0.72,0.82,0.05,-0.11,0.1
3.392,0.97,-0.75,0.89,0.05,-0.11,0.1
3.393,0.97,-0.75,0.89,0.05,-0.11,0.1
3.395,0.97,-0.75,0.89,0.06,-0.12,0.1
3.397,0.97,-0.75,0.89,0.07,-0.13,0.09
3.401,0.97,-0.75,0.89,0.07,-0.13,0.09
3.402,0.97,-0.75,0.89,0.08,-0.15,0.09
3.402,1.06,-0.67,1.03,0.08,-0.15,0.09
3.403,1.06,-0.67,1.03,0.09,-0.15,0.08
3.405,1.06,-0.67,1.03,0.1,-0.17,0.08
3.407,1.06,-0.67,1.03,0.11,-0.17,0.07
3.409,1.06,-0.67,1.03,0.12,-0.18,0.07
3.425,1.06,-0.67,1.03,0.12,-0.19,0.06
3.425,1.06,-0.67,1.03,0.12,-0.22,0.04
3.426,1.06,-0.67,1.03,0.12,-0.22,0.04
3.426,1.06,-0.67,1.03,0.11,-0.23,0.03
3.426,1.06,-0.67,1.03,0.11,-0.23,0.03
3.427,1.06,-0.67,1.03,0.11,-0.23,0.03
3.427,1.06,-0.67,1.03,0.11,-0.23,0.03
3.427,1.15,-0.5,0.59,0.11,-0.23,0.03
3.427,1.13,-0.5,0.6,0.11,-0.23,0.03
3.428,1.11,-0.5,0.6,0.11,-0.23,0.03
3.428,1.11,-0.5,0.6,0.11,-0.23,0.03
3.429,1.11,-0.5,0.6,0.1,-0.24,0.02
3.429,1.11,-0.5,0.6,0.1,-0.24,0.02
3.433,1.11,-0.5,0.6,0.08,-0.24,0.02
3.433,1.07,-0.48,0.39,0.08,-0.24,0.02
3.434,1.07,-0.48,0.39,0.08,-0.25,0.02
3.435,1.07,-0.48,0.39,0.06,-0.25,0.01
3.439,1.07,-0.48,0.39,0.06,-0.25,0.01
3.439,1.07,-0.48,0.39,0.05,-0.25,0
3.442,1.07,-0.48,0.39,0.04,-0.25,0
3.442,1.07,-0.51,0.33,0.04,-0.25,0
3.443,1.07,-0.51,0.33,0.03,-0.24,0
3.445,1.07,-0.51,0.33,0.01,-0.24,-0.01
3.447,1.07,-0.51,0.33,0,-0.23,-0.01
3.449,1.07,-0.51,0.33,-0.02,-0.22,-0.01
3.469,1.07,-0.51,0.33,-0.03,-0.21,-0.01
3.47,1.07,-0.51,0.33,-0.08,-0.12,-0.01
3.47,1.07,-0.51,0.33,-0.09,-0.11,0
3.476,1.07,-0.51,0.33,-0.09,-0.11,0
3.476,1.07,-0.51,0.33,-0.09,-0.11,0
3.477,1.07,-0.51,0.33,-0.1,-0.1,0
3.478,1.07,-0.51,0.33,-0.1,-0.08,0.01
3.479,0.74,-0.64,0.42,-0.1,-0.08,0.01
3.479,0.71,-0.63,0.4,-0.1,-0.08,0.01
3.479,0.71,-0.63,0.4,-0.11,-0.07,0.01
3.48,0.71,-0.63,0.4,-0.12,-0.05,0.01
3.48,0.71,-0.63,0.4,-0.13,-0.02,0.02
3.481,0.71,-0.63,0.4,-0.14,0,0.03
3.481,0.71,-0.63,0.4,-0.15,0.01,0.03
3.481,0.79,-0.72,0.59,-0.15,0.01,0.03
3.481,0.79,-0.72,0.59,-0.15,0.02,0.03
3.482,0.79,-0.72,0.59,-0.16,0.04,0.04
3.482,0.79,-0.72,0.59,-0.16,0.05,0.04
3.485,0.79,-0.72,0.59,-0.16,0.05,0.04
3.486,0.79,-0.72,0.59,-0.17,0.06,0.04
3.486,0.79,-0.72,0.59,-0.17,0.06,0.04
3.486,0.91,-0.7,0.71,-0.17,0.06,0.04
3.487,0.91,-0.7,0.71,-0.17,0.06,0.03
3.489,0.91,-0.7,0.71,-0.17,0.07,0.03
3.505,0.91,-0.7,0.71,-0.18,0.07,0.03
3.505,0.91,-0.7,0.71,-0.17,0.05,0.04
3.506,0.91,-0.7,0.71,-0.17,0.05,0.04
3.506,0.91,-0.7,0.71,-0.17,0.05,0.04
3.506,0.91,-0.7,0.71,-0.17,0.04,0.04
3.507,0.91,-0.7,0.71,-0.17,0.04,0.04
3.507,0.91,-0.7,0.71,-0.17,0.04,0.04
3.507,0.84,-0.76,0.9,-0.17,0.04,0.04
3.507,0.83,-0.74,0.86,-0.17,0.04,0.04
3.508,0.83,-0.74,0.86,-0.17,0.03,0.04
3.508,0.83,-0.74,0.86,-0.16,0.01,0.04
3.509,0.83,-0.74,0.86,-0.16,0,0.04
3.512,0.83,-0.74,0.86,-0.14,-0.01,0.03
3.512,0.99,-0.76,1.05,-0.14,-0.01,0.03
3.513,0.99,-0.76,1.05,-0.14,-0.03,0.03
3.518,0.99,-0.76,1.05,-0.13,-0.05,0.02
3.519,0.99,-0.76,1.05,-0.12,-0.06,0.02
3.519,0.99,-0.76,1.05,-0.1,-0.09,0.01
3.522,0.99,-0.76,1.05,-0.08,-0.11,0
3.522,1.19,-0.65,1.34,-0.08,-0.11,0
3.523,1.19,-0.65,1.34,-0.07,-0.14,-0.01
3.525,1.19,-0.65,1.34,-0.06,-0.15,-0.02
3.528,1.19,-0.65,1.34,-0.04,-0.17,-0.03
3.529,1.19,-0.65,1.34,-0.03,-0.19,-0.04
3.544,1.19,-0.65,1.34,-0.02,-0.2,-0.04
3.544,1.19,-0.65,1.34,0.02,-0.23,-0.07
3.545,1.19,-0.65,1.34,0.02,-0.23,-0.07
3.545,1.19,-0.65,1.34,0.02,-0.23,-0.07
3.545,1.19,-0.65,1.34,0.02,-0.23,-0.07
3.545,1.19,-0.65,1.34,0.02,-0.23,-0.07
3.545,1.19,-0.65,1.34,0.02,-0.23,-0.07
3.546,1,-0.71,1.04,0.02,-0.23,-0.07
3.546,0.99,-0.7,1.03,0.02,-0.23,-0.07
3.546,0.98,-0.7,1.03,0.02,-0.23,-0.07
