time,ax,ay,az,wx,wy,wz
0.001,0.01,-0.02,0.22,-0.01,-0.01,0
0.001,0.01,-0.02,0.22,0,-0.01,0
0.002,0.01,-0.01,0.24,0,-0.01,0
0.002,0.01,-0.01,0.24,0,-0.01,0
0.002,0.01,-0.01,0.24,-0.01,-0.01,0
0.003,0.01,-0.01,0.24,0,0,0
0.004,0.01,-0.01,0.24,0,0,0
0.007,0.01,-0.01,0.24,0,0,0
0.008,0.01,-0.01,0.24,0,0,0
0.008,0.01,-0.01,0.24,0,0,0
0.013,0.01,-0.01,0.24,0,0,0
0.014,0.01,-0.01,0.24,0,0,0
0.015,0.01,-0.01,0.24,0,0.01,0
0.031,0.01,-0.01,0.24,0,0.01,0
0.032,0.01,-0.01,0.24,0.01,0.01,0
0.032,0.01,-0.01,0.24,0.01,0.01,0
0.032,0.01,-0.01,0.24,0.01,0.01,0
0.032,0.01,-0.01,0.24,0.01,0.01,0
0.032,0.01,-0.01,0.24,0.01,0.01,0
0.032,0.01,-0.01,0.24,0,0.01,0
0.033,0.01,-0.01,0.24,0.01,0.01,0
0.033,0.01,-0.01,0.22,0.01,0.01,0
0.033,0.01,-0.01,0.22,0.01,0.01,0
0.033,0.02,-0.01,0.22,0.01,0.01,0
0.034,0.02,-0.01,0.22,0.01,0.01,0
0.036,0.02,-0.01,0.22,0,0.01,0
0.038,0.02,-0.01,0.22,0,0.01,0
0.038,0.01,-0.01,0.22,0,0.01,0
0.039,0.01,-0.01,0.22,0,0.01,0
0.04,0.01,-0.01,0.22,0,0.01,0
0.043,0.01,-0.01,0.22,0,0,0
0.045,0.01,-0.01,0.22,0,0,0
0.047,0.01,-0.01,0.22,0,0,0
0.048,0.01,-0.01,0.21,0,0,0
0.049,0.01,-0.01,0.21,0,0.01,0
0.051,0.01,-0.01,0.21,0,0,0
0.053,0.01,-0.01,0.21,0,0,0
0.054,0.01,-0.01,0.21,0,0,0
0.071,0.01,-0.01,0.21,0,0,0
0.071,0.01,-0.01,0.21,0,0,0
0.071,0.01,-0.01,0.21,0,0,0
0.071,0.01,-0.01,0.21,0,-0.01,0
0.071,0.01,-0.01,0.21,0,-0.01,0
0.072,0.01,-0.01,0.21,0,-0.01,0
0.072,0.01,-0.01,0.21,0,-0.01,0
0.072,0.01,-0.01,0.21,-0.01,-0.01,0
0.072,0.02,0,0.21,-0.01,-0.01,0
0.072,0.01,0,0.21,-0.01,-0.01,0
0.073,0.01,0,0.21,-0.01,-0.01,0
0.073,0.01,0,0.21,0,-0.01,0
0.075,0.01,0,0.21,0,-0.01,0
0.085,0.01,0,0.21,0,0,0
0.086,0.01,0,0.21,0,0,0
0.086,0.01,0,0.21,0,0,0
0.086,0.01,0,0.21,0,-0.01,0
0.086,0.01,0,0.21,0,0,0
0.086,0.01,0,0.21,0,0,0
0.088,0.01,0,0.21,0,0,0
0.088,0.02,0,0.21,0,0,0
0.089,0.02,0,0.21,0,0,0
0.091,0.02,0,0.21,0,0,0
0.093,0.02,0,0.21,0,0,0
0.095,0.02,0,0.21,0,0,0
0.109,0.02,0,0.21,0,0,0
0.109,0.02,0,0.21,0,0,0
0.109,0.02,0,0.21,0,0,0
0.109,0.02,0,0.21,0,0,0
0.109,0.02,0,0.21,0,0,0
0.11,0.02,0,0.21,0,0,0
0.11,0.02,-0.01,0.21,0,0,0
0.11,0.02,-0.01,0.21,0,0,0
0.11,0.02,-0.01,0.21,0,0,0
0.111,0.02,-0.01,0.21,0,0,0
0.114,0.02,-0.01,0.21,0,0,0
0.116,0.02,-0.01,0.21,0,0,0
0.118,0.02,-0.01,0.21,0,0,0
0.118,0.01,-0.01,0.21,0,0,0
0.119,0.01,-0.01,0.21,0,0,0
0.121,0.01,-0.01,0.21,0,0,0
0.123,0.01,-0.01,0.21,0,0,0
0.125,0.01,-0.01,0.21,0,0,0
0.128,0.01,-0.01,0.21,0,0,0
0.128,0.01,-0.01,0.21,0,0,0
0.128,0.01,-0.01,0.21,0,0,0
0.131,0.01,-0.01,0.21,0,0,0
0.133,0.01,-0.01,0.21,0,0,0
0.135,0.01,-0.01,0.21,0,0,0
0.15,0.01,-0.01,0.21,0,0,0
0.15,0.01,-0.01,0.21,0,0,0
0.15,0.01,-0.01,0.21,0,0,0
0.15,0.01,-0.01,0.21,0,0,0
0.15,0.01,-0.01,0.21,0,0,0
0.151,0.01,-0.01,0.21,0,0,0
0.151,0.01,-0.01,0.21,0,0,0
0.151,0,-0.01,0.22,0,0,0
0.151,0,-0.01,0.22,0,0,0
0.151,0,-0.01,0.22,0,0,0
0.151,0,-0.01,0.22,0,0,0
0.153,0,-0.01,0.22,0,0,0
0.155,0,-0.01,0.22,0,0,0
0.158,0,-0.01,0.22,0,0,0
0.158,0,-0.01,0.22,0,0,0
0.159,0,-0.01,0.22,0,0,0
0.168,0,-0.01,0.22,0,0,0
0.169,0,-0.01,0.22,0,0,0
0.169,0,-0.01,0.22,0,0,0
0.169,0,-0.01,0.22,0,0,0
0.17,0.01,-0.01,0.22,0,0,0
0.17,0.01,-0.01,0.22,0,0,0
0.171,0.01,-0.01,0.22,0,0,0
0.172,0.01,-0.01,0.22,0,0,0
0.175,0.01,-0.01,0.22,0,0,0
0.191,0.01,-0.01,0.22,0,0,0
0.192,0.01,-0.01,0.22,0,0,0
0.192,0.01,-0.01,0.22,0,0,0
0.192,0.01,-0.01,0.22,0,0,0
0.192,0.01,-0.01,0.22,0,0,0
0.192,0.01,-0.01,0.22,0,0,0
0.192,0.01,-0.01,0.22,0,0,0
0.192,0.01,-0.01,0.22,0,0,0
0.193,0,-0.01,0.22,0,0,0
0.193,0,-0.01,0.22,0,0,0
0.193,0,-0.01,0.22,0,0,0
0.195,0,-0.01,0.22,0,0,0
0.196,0,-0.01,0.22,0,0,0
0.199,0,-0.01,0.22,0,0,0
0.199,0,-0.01,0.22,0,0,0
0.2,0.01,-0.01,0.22,0,0,0
0.201,0.01,-0.01,0.22,0,0,0
0.203,0.01,-0.01,0.22,0,0,0
0.205,0.01,-0.01,0.22,0,0,0
0.208,0.01,-0.01,0.22,0,0,0
0.208,0.01,-0.01,0.22,0,0,0
0.208,0.01,-0.01,0.22,0,0,0
0.211,0.01,-0.01,0.22,0,0,0
0.213,0.01,-0.01,0.22,0,0,0
0.215,0.01,-0.01,0.22,0,0,0
0.23,0.01,-0.01,0.22,0,0,0
0.23,0.01,-0.01,0.22,0,0,0
0.231,0.01,-0.01,0.22,0,0,0
0.231,0.01,-0.01,0.22,0,0,0
0.231,0.01,-0.01,0.22,0,0,0
0.231,0.01,-0.01,0.22,0,0,0
0.231,0.01,-0.01,0.22,0,0,0
0.232,0.01,-0.02,0.21,0,0,0
0.232,0.01,-0.02,0.21,0,0,0
0.232,0.01,-0.02,0.21,0,0,0
0.233,0.01,-0.02,0.21,0,0,0
0.235,0.01,-0.02,0.21,0,0,0
0.238,0.01,-0.02,0.21,0,0,0
0.238,0,-0.02,0.21,0,0,0
0.239,0,-0.02,0.21,0,0,0
0.241,0,-0.02,0.21,0,0,0
0.243,0,-0.02,0.21,0,0,0
0.245,0,-0.02,0.21,0,0,0
0.248,0,-0.02,0.21,0,0,0
0.248,0,-0.01,0.21,0,0,0
0.249,0,-0.01,0.21,0,0,0
0.251,0,-0.01,0.21,0,0,0
0.253,0,-0.01,0.21,0,0,0
0.255,0,-0.01,0.21,0,0,0
0.271,0,-0.01,0.21,0,0,0
0.271,0,-0.01,0.21,0,0,0
0.271,0,-0.01,0.21,0,0,0
0.272,0,-0.01,0.21,0,0,0
0.272,0,-0.01,0.21,0,0,0
0.272,0,-0.01,0.21,0,0,0
0.272,0,-0.01,0.21,0,0,0
0.272,0,-0.01,0.21,0,0,0
0.272,0.01,0,0.21,0,0,0
0.273,0.01,0,0.21,0,0,0
0.273,0.01,0,0.21,0,0,0
0.273,0.01,0,0.21,0,0,0
0.275,0.01,0,0.21,0,0,0
0.278,0.01,0,0.21,0,0,0
0.278,0,-0.01,0.21,0,0,0
0.279,0,-0.01,0.21,0,0,0
0.281,0,-0.01,0.21,0,0,0
0.284,0,-0.01,0.21,0,0,0
0.285,0,-0.01,0.21,0,0,0
0.288,0,-0.01,0.21,0,0,0
0.289,0.01,-0.01,0.22,0,0,0
0.289,0.01,-0.01,0.22,0,0,0
0.291,0.01,-0.01,0.22,0,0,0
0.293,0.01,-0.01,0.22,0,0,0
0.295,0.01,-0.01,0.22,0,0,0
0.31,0.01,-0.01,0.22,0,0,0
0.31,0.01,-0.01,0.22,0,0,0
0.311,0.01,-0.01,0.22,0,0,0
0.311,0.01,-0.01,0.22,0,0,0
0.311,0.01,-0.01,0.22,0,0,0
0.311,0.01,-0.01,0.22,0,0,0
0.311,0.01,-0.01,0.22,0,0,0
0.312,0.02,-0.02,0.22,0,0,0
0.312,0.02,-0.02,0.22,0,0,0
0.312,0.02,-0.02,0.22,0,0,0
0.312,0.02,-0.02,0.22,0,0,0
0.313,0.02,-0.02,0.22,0,0,0
0.315,0.02,-0.02,0.22,0,0,0
0.318,0.02,-0.02,0.22,0,0,0
0.318,0.02,-0.02,0.22,0,0,0
0.319,0.02,-0.02,0.22,0,0,0
0.321,0.02,-0.02,0.22,0,0,0
0.323,0.02,-0.02,0.22,0,0,0
0.325,0.02,-0.02,0.22,0,0,0
0.328,0.02,-0.02,0.22,0,0,0
0.328,0.02,-0.01,0.22,0,0,0
0.328,0.02,-0.01,0.22,0,0,0
0.331,0.02,-0.01,0.22,0,0,0
0.333,0.02,-0.01,0.22,0,0,0
0.335,0.02,-0.01,0.22,0,0,0
0.35,0.02,-0.01,0.22,0,0.01,0
0.35,0.02,-0.01,0.22,0,0,0
0.35,0.02,-0.01,0.22,0,0,0
0.35,0.02,-0.01,0.22,0,0,0
0.351,0.02,-0.01,0.22,0,0,0
0.351,0.02,-0.01,0.22,0,0,0
0.351,0.02,-0.01,0.22,0,0,0
0.351,0.01,-0.01,0.22,0,0,0
0.351,0.01,-0.01,0.22,0,0,0
0.352,0.01,-0.01,0.22,0,0,0
0.352,0.01,-0.01,0.22,0,0,0
0.353,0.01,-0.01,0.22,0,0,0
0.356,0.01,-0.01,0.22,0,0,0
0.358,0.01,-0.01,0.22,0,0,0
0.358,0.01,0,0.22,0,0,0
0.359,0.01,0,0.22,0,0,0
0.37,0.01,0,0.22,0,0,0
0.37,0.01,0,0.22,0,0,0
0.37,0.01,0,0.22,0,0,0
0.371,0.01,0,0.22,0,0,0
0.371,0.01,0,0.22,0,0,0
0.371,0.01,0,0.22,0,0,0
0.371,0.01,0,0.22,0,0,0
0.372,0.01,0,0.22,0,0,0
0.375,0.01,0,0.22,0,0,0
0.391,0.01,0,0.22,0,0,0
0.392,0.01,0,0.22,0,-0.01,0
0.392,0.01,0,0.22,0,-0.01,0
0.392,0.01,0,0.22,0,0,0
0.392,0.01,0,0.22,0,0,0
0.393,0.01,0,0.22,0,0,0
0.393,0.01,0,0.22,0,0,0
0.393,0.01,0,0.22,0,0,0
0.393,0.02,-0.01,0.23,0,0,0
0.393,0.02,0,0.23,0,0,0
0.393,0.02,0,0.23,0,0,0
0.394,0.02,0,0.23,0,0,0
0.395,0.02,0,0.23,0,0,0
0.398,0.02,0,0.23,0,-0.01,0
0.398,0.02,0,0.22,0,-0.01,0
0.399,0.02,0,0.22,0,-0.01,0
0.401,0.02,0,0.22,0,0,0
0.403,0.02,0,0.22,0,0,0
0.405,0.02,0,0.22,0,0,0
0.408,0.02,0,0.22,0,0,0
0.408,0.02,-0.01,0.23,0,0,0
0.408,0.02,-0.01,0.23,0,0,0
0.41,0.02,-0.01,0.23,0,0,0
0.413,0.02,-0.01,0.23,0,0,0
0.415,0.02,-0.01,0.23,0,0,0
0.431,0.02,-0.01,0.23,0,0.01,0
0.431,0.02,-0.01,0.23,0,0.01,0
0.431,0.02,-0.01,0.23,0,0,0
0.431,0.02,-0.01,0.23,0,0,0
0.432,0.02,-0.01,0.23,0,0,0
0.432,0.02,-0.01,0.23,0,0,0
0.432,0.02,-0.01,0.23,0,0,0
0.432,0.02,-0.01,0.23,0,0,0
0.432,0.02,-0.01,0.23,0,0,0
0.432,0.02,-0.01,0.23,0,0,0
0.433,0.02,-0.01,0.23,0,0,0
0.435,0.02,-0.01,0.23,0,0,0
0.438,0.02,-0.01,0.23,0,0,0
0.438,0.02,-0.01,0.23,0,0,0
0.438,0.02,-0.01,0.23,0.01,0.01,0
0.44,0.02,-0.01,0.23,0,0.01,0
0.443,0.02,-0.01,0.23,0,0,0
0.445,0.02,-0.01,0.23,0,0,0
0.448,0.02,-0.01,0.23,0,0,0
0.448,0.02,-0.01,0.23,0,0,0
0.448,0.02,-0.01,0.23,0,0,0
0.45,0.02,-0.01,0.23,0,0,0
0.452,0.02,-0.01,0.23,0,0,0
0.454,0.02,-0.01,0.23,0,0,0
0.47,0.02,-0.01,0.23,0,0,0
0.471,0.02,-0.01,0.23,0,0,0
0.471,0.02,-0.01,0.23,0,0,0
0.471,0.02,-0.01,0.23,0,0,0
0.471,0.02,-0.01,0.23,0,0,0
0.471,0.02,-0.01,0.23,0,0,0
0.472,0.02,-0.01,0.23,0,0,0
0.472,0.01,-0.01,0.23,0,0,0
0.472,0.01,-0.01,0.23,0,0,0
0.472,0.01,-0.01,0.23,0,0,0
0.473,0.01,-0.01,0.23,0,0,0
0.473,0.01,-0.01,0.23,0,0,0
0.475,0.01,-0.01,0.23,0,0,0
0.478,0.01,-0.01,0.23,0,0,0
0.478,0,-0.02,0.22,0,0,0
0.479,0,-0.02,0.22,0,0,0
0.48,0,-0.02,0.22,0,0,0
0.482,0,-0.02,0.22,0,-0.01,0
0.485,0,-0.02,0.22,0,0,0
0.488,0,-0.02,0.22,0,0,0
0.488,0,-0.01,0.22,0,0,0
0.489,0,-0.01,0.22,0,-0.01,0
0.491,0,-0.01,0.22,0,0,0
0.493,0,-0.01,0.22,0,-0.01,0
0.495,0,-0.01,0.22,0,0,0
0.51,0,-0.01,0.22,0,0,0
0.511,0,-0.01,0.22,0,0,0
0.511,0,-0.01,0.22,0,0,0
0.511,0,-0.01,0.22,0,0,0
0.511,0,-0.01,0.22,0,0,0
0.511,0,-0.01,0.22,0,0,0
0.511,0,-0.01,0.22,0,0,0
0.512,0.01,-0.01,0.23,0,0,0
0.512,0.01,-0.01,0.23,0,0,0
0.512,0.01,-0.01,0.23,0,0,0
0.512,0.01,-0.01,0.23,0,0,0
0.512,0.01,-0.01,0.23,0,0,0
0.515,0.01,-0.01,0.23,0,0,0
0.518,0.01,-0.01,0.23,0.01,0,0
0.518,0.02,-0.01,0.23,0.01,0,0
0.519,0.02,-0.01,0.23,0,0,0
0.521,0.02,-0.01,0.23,0,0,0
0.523,0.02,-0.01,0.23,0,0,0
0.525,0.02,-0.01,0.23,0,0,0
0.528,0.02,-0.01,0.23,0,0,0
0.529,0.02,-0.01,0.23,0,0,0
0.529,0.02,-0.01,0.23,0,0,0
0.532,0.02,-0.01,0.23,0,0,0
0.533,0.02,-0.01,0.23,0,0,0
0.535,0.02,-0.01,0.23,0,0,0
0.55,0.02,-0.01,0.23,0,0,0
0.551,0.02,-0.01,0.23,0,0,0
0.551,0.02,-0.01,0.23,0,0,0
0.551,0.02,-0.01,0.23,0,0,0
0.551,0.02,-0.01,0.23,0,0,0
0.551,0.02,-0.01,0.23,0,0,0
0.552,0.02,-0.01,0.23,0,0,0
0.552,0,0,0.23,0,0,0
0.552,0,0,0.23,0,0,0
0.552,0,0,0.23,0,0,0
0.552,0,0,0.23,0,0,0
0.553,0,0,0.23,0,0,0
0.555,0,0,0.23,0,0,0
0.558,0,0,0.23,0,0,0
0.559,0,0,0.22,0,0,0
0.559,0,0,0.22,0,0,0
0.565,0,0,0.22,0,0,0
0.565,0,0,0.22,0,0,0
0.566,0,0,0.22,0,0,0
0.568,0,0,0.22,0,0,0
0.569,0,-0.01,0.22,0,0,0
0.569,0,-0.01,0.22,0,0,0
0.571,0,-0.01,0.22,0,0,0
0.573,0,-0.01,0.22,0,0,0
0.575,0,-0.01,0.22,0,0,0
0.591,0,-0.01,0.22,0,0,0
0.592,0,-0.01,0.22,0,0,0
0.592,0,-0.01,0.22,0,0,0
0.592,0,-0.01,0.22,0,0,0
0.593,0,-0.01,0.22,0,0,0
0.593,0,-0.01,0.22,0,0,0
0.593,0,-0.01,0.22,0,0,0
0.593,0,-0.01,0.22,0,0,0
0.593,0,-0.01,0.23,0,0,0
0.594,0,-0.01,0.23,0,0,0
0.594,0,-0.01,0.23,0,0,0
0.594,0,-0.01,0.23,0,0,0
0.595,0,-0.01,0.23,0,0,0
0.599,0,-0.01,0.23,0,0,0
0.599,0,-0.02,0.23,0,0,0
0.6,0,-0.02,0.23,0,0,0
0.601,0,-0.02,0.23,0,0,0
0.603,0,-0.02,0.23,0,0,0
0.605,0,-0.02,0.23,0,0,0
0.608,0,-0.02,0.23,0.01,0,0
0.608,0,-0.01,0.23,0.01,0,0
0.609,0,-0.01,0.23,0,0,0
0.611,0,-0.01,0.23,0,0,0
0.616,0,-0.01,0.23,0,0,0
0.618,0,-0.01,0.23,0,0,0
0.63,0,-0.01,0.23,0,0,0
0.631,0,-0.01,0.23,0,0,0
0.632,0,-0.01,0.23,0,0,0
0.632,0,-0.01,0.23,0,0,0
0.632,0,-0.01,0.23,0,0,0
0.633,0,-0.01,0.23,0,0,0
0.633,0,-0.01,0.23,0,0,0
0.634,0.01,-0.01,0.23,0,0,0
0.634,0.01,-0.01,0.23,0,0,0
0.634,0.01,-0.01,0.23,0,0,0
0.635,0.01,-0.01,0.23,0,0,0
0.635,0.01,-0.01,0.23,0,0.01,0
0.635,0.01,-0.01,0.23,0,0,0
0.638,0.01,-0.01,0.23,0,0,0
0.638,0.01,-0.01,0.23,0,0,0
0.639,0.01,-0.01,0.23,0,0,0
0.641,0.01,-0.01,0.23,0,0,0
0.643,0.01,-0.01,0.23,0,0,0
0.645,0.01,-0.01,0.23,0,0,0
0.649,0.01,-0.01,0.23,0,0,0
0.65,0.01,-0.01,0.22,0,0,0
0.651,0.01,-0.01,0.22,0,0,0
0.651,0.01,-0.01,0.22,0,0,0
0.652,0.01,-0.01,0.22,0,0,0
0.655,0.01,-0.01,0.22,0,0,0
0.672,0.01,-0.01,0.22,0,0,0
0.673,0.01,-0.01,0.22,0,0,0
0.673,0.01,-0.01,0.22,0,0,0
0.673,0.01,-0.01,0.22,0,0,0
0.674,0.01,-0.01,0.22,0,0,0
0.674,0.01,-0.01,0.22,0,0,0
0.674,0.01,-0.01,0.22,0,0,0
0.674,0.01,-0.01,0.22,0,0,0
0.674,0,-0.02,0.22,0,0,0
0.674,0,-0.02,0.22,0,0,0
0.675,0,-0.02,0.22,0,0,0
0.675,0,-0.02,0.22,0,0,0
0.676,0,-0.02,0.22,0,0,0
0.679,0,-0.02,0.22,0,0,0
0.68,0,-0.02,0.22,0,0,0
0.68,0,-0.02,0.22,0,0,0
0.683,0,-0.02,0.22,0,0,0
0.685,0,-0.02,0.22,0,0,0
0.685,0,-0.02,0.22,0,0,0
0.687,0,-0.02,0.22,0,0,0
0.688,0,-0.02,0.22,0,0,0
0.689,0,-0.02,0.22,0,0,0
0.691,0,-0.02,0.22,0,0,0
0.693,0,-0.02,0.22,0,0,0
0.696,0,-0.02,0.22,0,0,0
0.71,0,-0.02,0.22,0,0,0
0.71,0,-0.02,0.22,0,0,0
0.71,0,-0.02,0.22,0,0,0
0.71,0,-0.02,0.22,0,0,0
0.711,0,-0.02,0.22,0,0,0
0.711,0,-0.02,0.22,0,0,0
0.711,0,-0.02,0.22,0,0,0
0.711,0.01,-0.01,0.23,0,0,0
0.711,0.01,-0.01,0.23,0,0,0
0.711,0.01,-0.01,0.23,0,0,0
0.713,0.01,-0.01,0.23,0,0.01,0
0.716,0.01,-0.01,0.23,0,0,0
0.718,0.01,-0.01,0.23,0,0,0
0.718,0.01,-0.01,0.23,0,0,0
0.718,0.01,-0.01,0.23,0,0,0
0.722,0.01,-0.01,0.23,0,0,0
0.723,0.01,-0.01,0.23,0,0,0
0.725,0.01,-0.01,0.23,0,0,0
0.728,0.01,-0.01,0.23,0,0,0
0.729,0.02,0,0.23,0,0,0
0.73,0.02,0,0.23,0,0,0
0.731,0.02,0,0.23,0,0,0
0.733,0.02,0,0.23,0,0,0
0.735,0.02,0,0.23,0,0,0
0.75,0.02,0,0.23,0,0,0
0.75,0.02,0,0.23,0,0,0
0.751,0.02,0,0.23,0,0,0
0.751,0.02,0,0.23,0,0,0
0.751,0.02,0,0.23,0,0,0
0.751,0.02,0,0.23,0,0,0
0.752,0.02,0,0.23,0,0,0
0.752,0.02,-0.02,0.23,0,0,0
0.752,0.02,-0.02,0.23,0,0,0
0.752,0.02,-0.02,0.23,0,0,0
0.752,0.02,-0.02,0.23,0,0,0
0.753,0.02,-0.02,0.23,0,0,0
0.755,0.02,-0.02,0.23,0,0,0
0.759,0.02,-0.02,0.23,0,0,0
0.76,0.02,-0.02,0.23,0,0,0
0.76,0.02,-0.02,0.23,0,0,0
0.761,0.02,-0.02,0.23,0,0,0
0.77,0.02,-0.02,0.23,0,0,0
0.771,0.02,-0.02,0.23,0,0,0
0.771,0.02,-0.02,0.23,0,0,0
0.772,0.02,-0.02,0.23,0,0,0
0.772,0.02,-0.02,0.23,0,0,0
0.772,0.02,-0.02,0.23,0,0,0
0.774,0.02,-0.02,0.23,0,0,0
0.776,0.02,-0.02,0.23,0,0,0
0.791,0.02,-0.02,0.23,0,0,0
0.791,0.02,-0.02,0.23,0,0,0
0.791,0.02,-0.02,0.23,0.01,0.01,0
0.791,0.02,-0.02,0.23,0,0,0
0.792,0.02,-0.02,0.23,0,0,0
0.792,0.02,-0.02,0.23,0,0,0
0.792,0.02,-0.02,0.23,0,0,0
0.792,0.02,-0.02,0.23,0.01,0,0
0.792,0.02,-0.01,0.23,0.01,0,0
0.792,0.02,-0.01,0.23,0.01,0,0
0.793,0.02,-0.01,0.23,0,0.01,0
0.795,0.02,-0.01,0.23,0,0.01,0
0.799,0.02,-0.01,0.23,0,0.01,0
0.799,0.02,-0.01,0.23,0,0,0
0.8,0.01,0,0.23,0,0,0
0.802,0.01,0,0.23,0,0.01,0
0.802,0.01,0,0.23,0,0,0
0.805,0.01,0,0.23,0,0.01,0
0.808,0.01,0,0.23,0,0,0
0.808,0.01,0,0.23,0,0,0
0.809,0.01,0,0.23,0,0,0
0.811,0.01,0,0.23,0,0,0
0.813,0.01,0,0.23,0,0,0
0.815,0.01,0,0.23,0,0,0
0.831,0.01,0,0.23,0,0,0
0.832,0.01,0,0.23,0,0,0
0.832,0.01,0,0.23,0,0,0
0.832,0.01,0,0.23,0,0,0
0.832,0.01,0,0.23,0,0,0
0.833,0.01,0,0.23,0,0,0
0.833,0.01,0,0.23,0,0,0
0.833,0.01,0,0.23,0,0,0
0.833,0.01,0,0.23,0,0,0
0.834,0.01,0,0.23,0,0,0
0.834,0.01,0,0.23,0,0,0
0.835,0.01,0,0.23,0,0,0
0.838,0.01,0,0.23,0,0,0
0.839,0.01,0,0.23,0,0,0
0.839,0.01,0,0.23,0,0,0
0.842,0.01,0,0.23,0,0,0
0.843,0.01,0,0.23,0,0,0
0.846,0.01,0,0.23,0,0,0
0.85,0.01,0,0.23,0,-0.01,0
0.851,0.01,0,0.23,0,0,0
0.851,0.01,-0.01,0.23,0,0,0
0.851,0.01,-0.01,0.23,0,0,0
0.853,0.01,-0.01,0.23,0,0,0
0.855,0.01,-0.01,0.23,0,0,0
0.871,0.01,-0.01,0.23,0,0,0
0.871,0.01,-0.01,0.23,0,0,0
0.871,0.01,-0.01,0.23,0,0,0
0.872,0.01,-0.01,0.23,0,0,0
0.872,0.01,-0.01,0.23,0,0,0
0.872,0.01,-0.01,0.23,0,0,0
0.872,0.01,-0.01,0.23,0,0,0
0.872,0.01,-0.02,0.24,0,0,0
0.873,0.01,-0.02,0.24,0,0,0
0.873,0.01,-0.02,0.24,0,0,0
0.873,0.01,-0.02,0.24,0,0,0
0.873,0.01,-0.02,0.24,0,0,0
0.875,0.01,-0.02,0.24,0,0,0
0.883,0.01,-0.02,0.24,0,0,0
0.884,0.01,-0.01,0.24,0,0,0
0.884,0.01,-0.01,0.24,0,0,0
0.884,0.01,-0.01,0.24,0.01,0.01,0
0.884,0.01,-0.01,0.24,0,0,0
0.888,0.01,-0.01,0.24,0.01,0,0
0.889,0.01,-0.01,0.24,0,0,0
0.889,0.01,-0.01,0.24,0,0,0
0.889,0.01,-0.01,0.23,0,0,0
0.892,0.01,-0.01,0.23,0,0.01,0
0.894,0.01,-0.01,0.23,0,0,0
0.896,0.01,-0.01,0.23,0,0,0
0.911,0.01,-0.01,0.23,0,0,0
0.912,0.01,-0.01,0.23,0,0,0
0.912,0.01,-0.01,0.23,0,0,0
0.912,0.01,-0.01,0.23,0,0,0
0.912,0.01,-0.01,0.23,0,0,0
0.913,0.01,-0.01,0.23,0,0,0
0.913,0.01,-0.01,0.23,0,0,0
0.913,0.01,-0.01,0.23,0,0,0
0.914,0.01,-0.01,0.23,0,0,0
0.914,0.01,-0.01,0.23,0,0,0
0.914,0.01,-0.01,0.23,0,0,0
0.915,0.01,-0.01,0.23,0,0,0
0.917,0.01,-0.01,0.23,0,0,0
0.918,0.01,-0.01,0.23,0,0,0
0.919,0.01,-0.01,0.23,0,0,0
0.919,0.01,-0.01,0.23,0,0,0
0.921,0.01,-0.01,0.23,0,0,0
0.923,0.01,-0.01,0.23,0,0,0
0.925,0.01,-0.01,0.23,0,0,0
0.928,0.01,-0.01,0.23,0,0,0
0.93,0.01,-0.01,0.23,0,0,0
0.93,0.01,-0.01,0.23,0,-0.01,0
0.932,0.01,-0.01,0.23,0,0,0
0.933,0.01,-0.01,0.23,0,0,0
0.935,0.01,-0.01,0.23,0,0,0
0.949,0.01,-0.01,0.23,0,0,0
0.95,0.01,-0.01,0.23,0,-0.01,0
0.95,0.01,-0.01,0.23,0,-0.01,0
0.95,0.01,-0.01,0.23,0,-0.01,0
0.95,0.01,-0.01,0.23,0,-0.01,0
0.95,0.01,-0.01,0.23,0,0,0
0.951,0.01,-0.01,0.23,0,0,0
0.951,0.01,-0.01,0.23,0,0,0
0.951,0.01,-0.01,0.23,0,0,0
0.951,0.01,-0.01,0.23,0,0,0
0.952,0.01,-0.01,0.23,0,0,0
0.955,0.01,-0.01,0.23,0,0,0
0.958,0.01,-0.01,0.23,0,0,0
0.958,0.01,-0.01,0.23,0,0,0
0.959,0.01,-0.01,0.23,0,0,0
0.961,0.01,-0.01,0.23,0,0,0
0.967,0.01,-0.01,0.23,0,0,0
0.967,0.01,-0.01,0.23,0,0,0
0.968,0.01,-0.01,0.23,0,0,0
0.968,0.01,-0.01,0.23,0,0,0
0.973,0.01,-0.01,0.23,0,0,0
0.974,0.01,-0.01,0.23,0,0,0
0.974,0.01,-0.01,0.23,0,0,0
0.975,0.01,-0.01,0.23,0,0.01,0
0.991,0.01,-0.01,0.23,0,0,0
0.992,0.01,-0.01,0.23,0,0.01,0
0.992,0.01,-0.01,0.23,0,0.01,0
0.992,0.01,-0.01,0.23,0,0.01,0
0.992,0.01,-0.01,0.23,0,0.01,0
0.993,0.01,-0.01,0.23,0,0.01,0
0.993,0.01,-0.01,0.23,0,0.01,0
0.993,0.01,-0.01,0.23,0,0.01,0
0.994,0.01,0,0.23,0,0.01,0
0.994,0.01,0,0.23,0,0.01,0
0.994,0.01,0,0.23,0,0.01,0
0.995,0.01,0,0.23,0,0.01,0
0.995,0.01,0,0.23,0,0,0
0.998,0.01,0,0.23,0,0,0
0.999,0.01,0,0.23,0,0,0
0.999,0.01,0,0.23,0,0,0
1.002,0.01,0,0.23,0,0,0
1.004,0.01,0,0.23,0,0,0
1.005,0.01,0,0.23,0,0,0
1.008,0.01,0,0.23,0,0,0
1.008,0.01,0,0.23,0,0,0
1.008,0.01,0,0.23,0,0,0
1.011,0.01,0,0.23,0,0,0
1.014,0.01,0,0.23,0,0,0
1.015,0.01,0,0.23,0,0,0
1.031,0.01,0,0.23,0,0,0
1.032,0.01,0,0.23,0,-0.01,0
1.032,0.01,0,0.23,0,0,0
1.032,0.01,0,0.23,0,0,0
1.033,0.01,0,0.23,0,0,0
1.033,0.01,0,0.23,0,0,0
1.033,0.01,0,0.23,-0.01,-0.01,0
1.033,0.01,0,0.23,0,0,0
1.034,0.01,-0.02,0.22,0,0,0
1.034,0.01,-0.02,0.22,0,0,0
1.034,0.01,-0.02,0.22,0,0,0
1.034,0.01,-0.02,0.22,0,-0.01,0
1.035,0.01,-0.02,0.22,0,-0.01,0
1.039,0.01,-0.02,0.22,-0.01,0,0
1.039,0.01,-0.02,0.22,0,-0.01,0
1.039,0.01,-0.02,0.22,0,-0.01,0
1.041,0.01,-0.02,0.22,0,-0.01,0
1.044,0.01,-0.02,0.22,0,-0.01,0
1.046,0.01,-0.02,0.22,0,0,0
1.051,0.01,-0.02,0.22,0,0,0
1.051,0.01,-0.02,0.22,0,0,0
1.051,0.01,-0.02,0.22,0,0,0
1.052,0.01,-0.02,0.22,0,0,0
1.053,0.01,-0.02,0.22,0,0,0
1.055,0.01,-0.02,0.22,0,0,0
1.071,0.01,-0.02,0.22,0,0,0
1.071,0.01,-0.02,0.22,0,0,0
1.071,0.01,-0.02,0.22,0,0,0
1.071,0.01,-0.02,0.22,0,0,0
1.072,0.01,-0.02,0.22,0,0,0
1.072,0.01,-0.02,0.22,0,0,0
1.072,0.01,-0.02,0.22,0,0,0
1.072,0.01,0,0.21,0,0,0
1.073,0.01,0,0.21,0,0,0
1.073,0.01,0,0.21,0,0,0
1.073,0.01,0,0.21,0,0,0
1.075,0.01,0,0.21,0,0,0
1.083,0.01,0,0.21,0,0,0
1.084,0.01,0.01,0.21,0,0,0
1.084,0.01,0.01,0.21,0,0,0
1.084,0.01,0.01,0.21,0,0,0
1.085,0.01,0.01,0.21,0.01,0,0
1.086,0.01,0.01,0.21,0,0,0
1.091,0.01,0.01,0.21,0,0.01,0
1.091,0.02,0,0.21,0,0.01,0
1.092,0.02,0,0.21,0,0,0
1.092,0.02,0,0.21,0,0,0
1.093,0.02,0,0.21,0,0,0
1.096,0.02,0,0.21,0,0,0
1.111,0.02,0,0.21,0,0,0
1.111,0.02,0,0.21,0,0,0
1.111,0.02,0,0.21,0,0,0
1.111,0.02,0,0.21,0,0,0
1.112,0.02,0,0.21,0,0,0
1.112,0.02,0,0.21,0,0,0
1.112,0.02,0,0.21,0,0,0
1.112,0.02,0,0.21,0,0,0
1.113,0.02,0,0.21,0,0,0
1.113,0.02,0,0.21,0,0,0
1.114,0.02,0,0.21,0,0,0
1.116,0.02,0,0.21,0,0,0
1.118,0.02,0,0.21,0,0,0
1.119,0.02,-0.01,0.22,0,0,0
1.12,0.02,-0.01,0.22,0,0,0
1.121,0.02,-0.01,0.22,0,0,0
1.123,0.02,-0.01,0.22,0,0,0
1.125,0.02,-0.01,0.22,0,0,0
1.13,0.02,-0.01,0.22,0,-0.01,0
1.13,0.01,-0.02,0.22,0,-0.01,0
1.131,0.01,-0.02,0.22,0,0,0
1.131,0.01,-0.02,0.22,0,0,0
1.134,0.01,-0.02,0.22,0,0,0
1.135,0.01,-0.02,0.22,0,0,0
1.153,0.01,-0.02,0.22,0,0,0
1.153,0.01,-0.02,0.22,0,0,0
1.153,0.01,-0.02,0.22,0,0,0
1.154,0.01,-0.02,0.22,0,0,0
1.154,0.01,-0.02,0.22,0,0,0
1.154,0.01,-0.02,0.22,0,0,0
1.154,0.01,-0.02,0.22,0,0,0
1.155,0.01,-0.02,0.22,0,0,0
1.155,0.01,-0.02,0.22,0,0,0
1.155,0.01,-0.02,0.22,0,0,0
1.155,0.01,-0.02,0.22,0,0,0
1.156,0.01,-0.02,0.22,0,0,0
1.156,0.01,-0.02,0.22,0,0,0
1.159,0.01,-0.02,0.22,0,0,0
1.159,0.01,-0.01,0.22,0,0,0
1.159,0.01,-0.01,0.22,0,0,0
1.162,0.01,-0.01,0.22,0,0,0
1.169,0.01,-0.01,0.22,0,0,0
1.169,0.01,-0.01,0.22,0,0,0
1.172,0.01,-0.01,0.22,0,0.01,0
1.172,0.01,-0.01,0.22,0,0.01,0
1.172,0.01,-0.01,0.22,0,0,0
1.173,0.01,-0.01,0.22,0,0,0
1.176,0.01,-0.01,0.22,0,0.01,0
1.176,0.01,-0.01,0.22,0,0,0
1.19,0.01,-0.01,0.22,0,0,0
1.19,0.01,-0.01,0.22,0,0,0
1.191,0.01,-0.01,0.22,0,0,0
1.191,0.01,-0.01,0.22,0,0,0
1.191,0.01,-0.01,0.22,0,0,0
1.191,0.01,-0.01,0.22,0,0,0
1.191,0.01,-0.01,0.22,0,0,0
1.191,0.01,0,0.21,0,0,0
1.191,0.01,0,0.21,0,0,0
1.191,0.01,0,0.21,0,0,0
1.191,0.01,0,0.21,-0.01,0,0
1.192,0.01,0,0.21,0,0,0
1.194,0.01,0,0.21,0,0,0
1.201,0.01,0,0.21,0,0,0
1.202,0.01,-0.01,0.22,0,0,0
1.202,0.01,-0.01,0.22,0,0,0
1.202,0.01,-0.01,0.22,0,0,0
1.203,0.01,-0.01,0.22,0,-0.01,0
1.204,0.01,-0.01,0.22,0,0,0
1.208,0.01,-0.01,0.22,0,0,0
1.208,0.01,-0.01,0.22,0,0,0
1.209,0.01,-0.01,0.22,0,0,0
1.211,0.01,-0.01,0.22,0,0,0
1.213,0.01,-0.01,0.22,0,0,0
1.215,0.01,-0.01,0.22,0,0,0
1.233,0.01,-0.01,0.22,0,0,0
1.234,0.01,-0.01,0.22,0,0,0
1.234,0.01,-0.01,0.22,0,0,0
1.234,0.01,-0.01,0.22,0,0,0
1.234,0.01,-0.01,0.22,0,0,0
1.234,0.01,-0.01,0.22,0,0,0
1.234,0.01,-0.01,0.22,0,0,0
1.236,0.01,-0.02,0.22,0,0,0
1.236,0.01,-0.02,0.22,0,0,0
1.236,0.01,-0.02,0.22,0,0,0
1.237,0.01,-0.02,0.22,0,0,0
1.237,0.01,-0.02,0.22,0,0,0
1.237,0.01,-0.02,0.22,0,0,0
1.239,0.01,-0.02,0.22,0,0,0
1.239,0.01,-0.02,0.22,0,0,0
1.239,0.01,-0.02,0.22,0,0,0
1.24,0.01,-0.02,0.22,0,0,0
1.242,0.01,-0.02,0.22,0,0,0
1.245,0.01,-0.02,0.22,0,0,0
1.248,0.01,-0.02,0.22,0,0,0
1.248,0.01,-0.01,0.22,0,0,0
1.249,0.01,-0.01,0.22,0,0,0
1.251,0.01,-0.01,0.22,0,0,0
1.252,0.01,-0.01,0.22,0,0,0
1.254,0.01,-0.01,0.22,0,0,0
1.27,0.01,-0.01,0.22,0,0,0
1.271,0.01,-0.01,0.22,0,0,0
1.271,0.01,-0.01,0.22,0,0,0
1.271,0.01,-0.01,0.22,0,0,0
1.272,0.01,-0.01,0.22,0,0,0
1.272,0.01,-0.01,0.22,0,0,0
1.272,0.01,-0.01,0.22,0,0,0
1.272,0.01,0,0.22,0,0,0
1.272,0.01,0,0.22,0,0,0
1.272,0.01,0,0.22,0,0,0
1.272,0.01,0,0.22,0,0,0
1.273,0.01,0,0.22,0,0,0
1.274,0.01,0,0.22,0,0,0
1.278,0.01,0,0.22,0,0,0
1.278,0.01,0,0.22,0,0,0
1.279,0.01,0,0.22,0,0,0
1.282,0.01,0,0.22,0,0,0
1.283,0.01,0,0.22,0,0,0
1.286,0.01,0,0.22,0,0,0
1.288,0.01,0,0.22,0,0,0
1.288,0.01,0,0.22,0,0,0
1.289,0.01,0,0.22,0,0,0
1.291,0.01,0,0.22,0,0,0
1.293,0.01,0,0.22,0,0,0
1.295,0.01,0,0.22,0,0,0
1.311,0.01,0,0.22,0,0,0
1.311,0.01,0,0.22,0,0,0
1.312,0.01,0,0.22,0,0,0
1.312,0.01,0,0.22,0,0,0
1.312,0.01,0,0.22,0,0,0
1.312,0.01,0,0.22,0,0,0
1.313,0.01,0,0.22,0,0,0
1.313,0.02,-0.01,0.22,0,0,0
1.313,0.02,-0.01,0.22,0,0,0
1.313,0.02,-0.01,0.22,0,0,0
1.314,0.02,-0.01,0.22,0,0,0
1.316,0.02,-0.01,0.22,0,0,0
1.318,0.02,-0.01,0.22,0,0,0
1.318,0.02,-0.01,0.22,0,0,0
1.318,0.02,-0.01,0.22,0,0,0
1.321,0.02,-0.01,0.22,0,0,0
1.323,0.02,-0.01,0.22,0,0,0
1.325,0.02,-0.01,0.22,0,0,0
1.328,0.02,-0.01,0.22,0,0,0
1.332,0.02,-0.01,0.22,0,0,0
1.333,0.02,-0.01,0.22,0,0,0
1.333,0.02,-0.01,0.22,0,0,0
1.333,0.02,-0.01,0.22,0,0,0
1.335,0.02,-0.01,0.22,0,0,0
1.351,0.02,-0.01,0.22,0.01,0,0
1.351,0.02,-0.01,0.22,0,0,0
1.351,0.02,-0.01,0.22,0,0,0
1.351,0.02,-0.01,0.22,0,0,0
1.352,0.02,-0.01,0.22,0,0,0
1.352,0.02,-0.01,0.22,0,0,0
1.352,0.02,-0.01,0.22,0,0,0
1.352,0.02,-0.01,0.22,0,0.01,0
1.352,0.02,-0.01,0.22,0,0.01,0
1.353,0.02,-0.01,0.22,0,0.01,0
1.353,0.02,-0.01,0.22,0,0.01,0
1.353,0.02,-0.01,0.22,0,0,0
1.355,0.02,-0.01,0.22,0,0,0
1.359,0.02,-0.01,0.22,0,0,0
1.36,0.02,-0.01,0.22,0,0,0
1.36,0.01,-0.01,0.22,0,0,0
1.362,0.01,-0.01,0.22,0,0,0
1.367,0.01,-0.01,0.22,0,0,0
1.368,0.01,-0.01,0.22,0,0,0
1.369,0.01,-0.01,0.22,0,0,0
1.369,0.01,-0.01,0.22,0,0,0
1.369,0.01,-0.01,0.22,0,0,0
1.371,0.01,-0.01,0.22,0,0,0
1.373,0.01,-0.01,0.22,0,0,0
1.375,0.01,-0.01,0.22,0,0,0
1.39,0.01,-0.01,0.22,0,0,0
1.391,0.01,-0.01,0.22,0,0,0
1.391,0.01,-0.01,0.22,0,0,0
1.391,0.01,-0.01,0.22,0,0,0
1.391,0.01,-0.01,0.22,0,0,0
1.391,0.01,-0.01,0.22,0,0,0
1.392,0.01,-0.01,0.22,0,0,0
1.392,0.02,-0.01,0.22,0,0,0
1.392,0.02,-0.01,0.22,0,0,0
1.392,0.02,-0.01,0.22,0,0,0
1.392,0.02,-0.01,0.22,0,0,0
1.395,0.02,-0.01,0.22,0,0,0
1.399,0.02,-0.01,0.22,0,0,0
1.399,0.02,-0.01,0.22,0,0.01,0
1.4,0.02,-0.01,0.22,0,0.01,0
1.402,0.02,-0.01,0.22,0.01,0.03,0
1.403,0.02,-0.01,0.22,0.02,0.04,0
1.405,0.02,-0.01,0.22,0.03,0.06,0
1.408,0.02,-0.01,0.22,0.05,0.1,0
1.408,0.03,-0.02,0.29,0.05,0.1,0
1.409,0.03,-0.02,0.29,0.06,0.11,0
1.411,0.03,-0.02,0.29,0.08,0.15,0
1.413,0.03,-0.02,0.29,0.09,0.19,0
1.415,0.03,-0.02,0.29,0.11,0.22,0
1.432,0.03,-0.02,0.29,0.12,0.23,0
1.433,0.03,-0.02,0.29,0.08,0.18,0
1.433,0.03,-0.02,0.29,0.08,0.16,0
1.434,0.03,-0.02,0.29,0.08,0.16,0
1.434,0.03,-0.02,0.29,0.07,0.13,0
1.434,0.03,-0.02,0.29,0.06,0.11,0
1.434,0.03,-0.02,0.29,0.06,0.11,0
1.434,0.03,-0.02,0.29,0.05,0.09,0
1.435,-0.03,0,0.05,0.05,0.09,0
1.435,0.01,-0.01,0.05,0.05,0.09,0
1.435,0.01,-0.01,0.05,0.03,0.05,0
1.435,0.01,-0.01,0.05,0,0.01,0
1.438,0.01,-0.01,0.05,-0.01,-0.02,0
1.439,0,-0.01,0,-0.01,-0.02,0
1.439,0,-0.01,0,-0.02,-0.04,0
1.441,0,-0.01,0,-0.03,-0.07,0
1.443,0,-0.01,0,-0.04,-0.09,0
1.445,0,-0.01,0,-0.04,-0.09,0
1.448,0,-0.01,0,-0.05,-0.1,0
1.449,0,0,0.03,-0.05,-0.1,0
1.449,0,0,0.03,-0.05,-0.11,0
1.451,0,0,0.03,-0.06,-0.11,0
1.453,0,0,0.03,-0.05,-0.11,0
1.455,0,0,0.03,-0.05,-0.1,0
1.473,0,0,0.03,-0.05,-0.1,0
1.474,0,0,0.03,-0.04,-0.08,0
1.474,0,0,0.03,-0.04,-0.08,0
1.474,0,0,0.03,-0.04,-0.08,0
1.474,0,0,0.03,-0.04,-0.07,0
1.475,0,0,0.03,-0.04,-0.07,0
1.475,0,0,0.03,-0.04,-0.07,0
1.475,0.03,-0.01,0.19,-0.04,-0.07,0
1.475,0.01,0,0.19,-0.04,-0.07,0
1.475,0.01,0,0.19,-0.03,-0.06,0
1.475,0.01,0,0.19,-0.02,-0.05,0
1.476,0.01,0,0.19,-0.01,-0.03,0
1.478,0.01,0,0.19,-0.01,-0.01,0
1.479,0.02,0,0.24,-0.01,-0.01,0
1.481,0.02,0,0.24,0,0.01,0
1.481,0.02,0,0.24,0.02,0.04,0
1.483,0.02,0,0.24,0.02,0.05,0
1.485,0.02,0,0.24,0.03,0.06,0
1.488,0.02,0,0.24,0.04,0.07,0
1.488,0.02,-0.01,0.27,0.04,0.07,0
1.489,0.02,-0.01,0.27,0.04,0.08,0
1.491,0.02,-0.01,0.27,0.04,0.08,0
1.494,0.02,-0.01,0.27,0.03,0.06,0
1.495,0.02,-0.01,0.27,0.02,0.05,0
1.512,0.02,-0.01,0.27,0.02,0.03,0
1.512,0.02,-0.01,0.27,0,0.01,0
1.513,0.02,-0.01,0.27,0.01,0.01,0
1.513,0.02,-0.01,0.27,0,0.01,0
1.513,0.02,-0.01,0.27,0,0.01,0
1.513,0.02,-0.01,0.27,0,0.01,0
1.514,0.02,-0.01,0.27,0,0.01,0
1.514,0.02,-0.01,0.27,0,0.01,0
1.514,0.03,-0.01,0.27,0,0.01,0
1.514,0.03,-0.01,0.27,0,0.01,0
1.514,0.03,-0.01,0.27,0,0.01,0
1.515,0.03,-0.01,0.27,0.01,0.01,0
1.516,0.03,-0.01,0.27,0.01,-0.01,0
1.519,0.03,-0.01,0.27,-0.04,-0.08,-0.01
1.519,0,-0.02,0.03,-0.04,-0.08,-0.01
1.519,0,-0.02,0.03,-0.07,-0.09,-0.01
1.521,0,-0.02,0.03,-0.08,-0.14,-0.02
1.523,0,-0.02,0.03,-0.08,-0.07,-0.09
1.525,0,-0.02,0.03,-0.12,0.03,-0.16
1.528,0,-0.02,0.03,-0.13,0.06,-0.18
1.528,0.16,0.06,0.1,-0.13,0.06,-0.18
1.53,0.16,0.06,0.1,-0.17,0.16,-0.21
1.532,0.16,0.06,0.1,-0.23,0.31,-0.21
1.533,0.16,0.06,0.1,-0.29,0.45,-0.2
1.536,0.16,0.06,0.1,-0.33,0.51,-0.18
1.552,0.16,0.06,0.1,-0.42,0.61,-0.11
1.553,0.16,0.06,0.1,-0.8,0.51,0.28
1.553,0.16,0.06,0.1,-0.8,0.51,0.28
1.553,0.16,0.06,0.1,-0.8,0.51,0.28
1.553,0.16,0.06,0.1,-0.8,0.51,0.28
1.554,0.16,0.06,0.1,-0.76,0.45,0.32
1.554,0.16,0.06,0.1,-0.53,0.25,0.34
1.554,0.16,0.06,0.1,-0.39,0.21,0.37
1.554,-0.85,-2.16,6.87,-0.39,0.21,0.37
1.555,-0.74,-2.04,6.87,-0.39,0.21,0.37
1.555,-0.74,-2.04,6.87,-0.46,0.48,0.42
1.555,-0.74,-2.04,6.87,-0.41,0.52,0.45
1.559,-0.74,-2.04,6.87,-0.35,0.45,0.46
1.559,-0.74,-2.04,6.87,-0.33,0.46,0.48
1.559,-0.99,-0.4,1.16,-0.33,0.46,0.48
1.561,-0.99,-0.4,1.16,-0.33,0.39,0.5
1.569,-0.99,-0.4,1.16,-0.33,0.33,0.5
1.57,-0.99,-0.4,1.16,-0.32,0.27,0.48
1.57,-0.94,-0.37,1.16,-0.32,0.27,0.48
1.57,-0.94,-0.37,1.16,-0.37,0.16,0.46
1.57,-0.94,-0.37,1.16,-0.4,0.02,0.41
1.571,-0.94,-0.37,1.16,-0.43,-0.01,0.38
1.577,-0.94,-0.37,1.16,-0.46,-0.02,0.33
1.578,-0.94,-0.37,1.16,-0.47,0,0.28
1.591,-0.94,-0.37,1.16,-0.49,0,0.25
1.592,-0.94,-0.37,1.16,-0.63,-0.19,0.12
1.592,-0.94,-0.37,1.16,-0.63,-0.19,0.12
1.593,-0.94,-0.37,1.16,-0.63,-0.19,0.12
1.593,-0.94,-0.37,1.16,-0.65,-0.21,0.11
1.593,-0.94,-0.37,1.16,-0.66,-0.23,0.11
1.593,-0.94,-0.37,1.16,-0.66,-0.23,0.11
1.593,0.42,0.81,0.44,-0.66,-0.23,0.11
1.594,0.4,0.92,0.45,-0.66,-0.23,0.11
1.594,0.38,0.98,0.45,-0.66,-0.23,0.11
1.594,0.38,0.98,0.45,-0.7,-0.25,0.1
1.595,0.38,0.98,0.45,-0.71,-0.26,0.11
1.595,0.38,0.98,0.45,-0.75,-0.29,0.12
1.598,0.38,0.98,0.45,-0.78,-0.33,0.15
1.599,0.43,-0.13,0.27,-0.78,-0.33,0.15
1.599,0.43,-0.13,0.27,-0.81,-0.37,0.18
1.601,0.43,-0.13,0.27,-0.83,-0.41,0.2
1.602,0.43,-0.13,0.27,-0.87,-0.48,0.25
1.605,0.43,-0.13,0.27,-0.91,-0.58,0.3
1.607,0.43,-0.13,0.27,-0.93,-0.63,0.33
1.607,-0.34,-0.81,0.18,-0.93,-0.63,0.33
1.613,-0.34,-0.81,0.18,-0.97,-0.72,0.37
1.613,-0.34,-0.81,0.18,-1.01,-0.8,0.41
1.613,-0.34,-0.81,0.18,-1.05,-0.89,0.44
1.615,-0.34,-0.81,0.18,-1.07,-0.92,0.45
1.63,-0.34,-0.81,0.18,-1.12,-1,0.47
1.631,-0.34,-0.81,0.18,-1.05,-0.32,0.4
1.631,-0.34,-0.81,0.18,-1.05,-0.32,0.4
1.631,-0.34,-0.81,0.18,-1.15,-0.36,0.41
1.631,-0.34,-0.81,0.18,-1.15,-0.36,0.41
1.631,-0.34,-0.81,0.18,-1.12,-0.21,0.39
1.632,-0.34,-0.81,0.18,-1.12,-0.21,0.39
1.632,-0.22,0.08,-4.2,-1.12,-0.21,0.39
1.632,-0.32,0.19,-4.19,-1.12,-0.21,0.39
1.632,-0.34,0.3,-4.18,-1.12,-0.21,0.39
1.633,-0.34,0.3,-4.18,-1.15,-0.1,0.34
1.633,-0.34,0.3,-4.18,-1.18,-0.08,0.32
1.635,-0.34,0.3,-4.18,-1.26,-0.03,0.3
1.638,-0.34,0.3,-4.18,-1.26,0.03,0.27
1.638,-0.96,0.21,0.45,-1.26,0.03,0.27
1.638,-0.96,0.21,0.45,-1.32,0.02,0.27
1.64,-0.96,0.21,0.45,-1.36,0.05,0.28
1.643,-0.96,0.21,0.45,-1.39,0.07,0.29
1.645,-0.96,0.21,0.45,-1.43,0.04,0.34
1.648,-0.96,0.21,0.45,-1.47,0.06,0.41
1.648,-2.39,-1.24,0.72,-1.47,0.06,0.41
1.649,-2.39,-1.24,0.72,-1.52,0.03,0.5
1.65,-2.39,-1.24,0.72,-1.53,0.01,0.55
1.652,-2.39,-1.24,0.72,-1.56,-0.08,0.64
1.655,-2.39,-1.24,0.72,-1.59,-0.21,0.76
1.672,-2.39,-1.24,0.72,-1.61,-0.25,0.88
1.673,-2.39,-1.24,0.72,-1.61,-1.11,1.26
1.673,-2.39,-1.24,0.72,-1.61,-1.11,1.26
1.673,-2.39,-1.24,0.72,-1.61,-1.11,1.26
1.673,-2.39,-1.24,0.72,-1.61,-1.11,1.26
1.673,-2.39,-1.24,0.72,-1.59,-1.34,1.26
1.674,-2.39,-1.24,0.72,-1.56,-1.56,1.26
1.674,0.54,-2.71,6.32,-1.56,-1.56,1.26
1.674,0.44,-2.4,6.37,-1.56,-1.56,1.26
1.674,0.44,-2.4,6.37,-1.53,-1.98,1.23
1.674,0.44,-2.4,6.37,-1.52,-2.19,1.21
1.676,0.44,-2.4,6.37,-1.47,-2.58,1.15
1.678,0.44,-2.4,6.37,-1.46,-2.99,1.08
1.678,2.54,-3.54,5.33,-1.46,-2.99,1.08
1.679,2.54,-3.54,5.33,-1.42,-3.35,0.99
1.682,2.54,-3.54,5.33,-1.39,-3.53,0.94
1.691,2.54,-3.54,5.33,-1.38,-3.87,0.84
1.692,2.54,-3.54,5.33,-1.38,-4.08,0.73
1.692,2.54,-3.54,5.33,-1.41,-4.25,0.63
1.692,2.54,-3.54,5.33,-1.42,-4.45,0.63
1.692,2.54,-3.54,5.33,-1.36,-4.93,0.57
1.692,6.64,-2.43,2.69,-1.36,-4.93,0.57
1.692,6.64,-2.43,2.69,-1.25,-5.28,0.47
1.702,6.64,-2.43,2.69,-1.14,-5.34,0.41
1.71,6.64,-2.43,2.69,-0.82,-5.25,0.26
1.711,6.64,-2.43,2.69,2.59,-0.8,-1.63
1.711,6.64,-2.43,2.69,2.59,-0.8,-1.63
1.711,6.64,-2.43,2.69,3.06,-0.23,-1.93
1.711,6.64,-2.43,2.69,3.06,-0.23,-1.93
1.711,6.64,-2.43,2.69,3.48,0.2,-2.2
1.711,6.64,-2.43,2.69,3.48,0.2,-2.2
1.711,6.59,2.29,15.36,3.48,0.2,-2.2
1.712,6.04,2.05,15.4,3.48,0.2,-2.2
1.712,5.99,1.73,15.35,3.48,0.2,-2.2
1.712,5.99,1.73,15.35,4.13,0.75,-2.56
1.717,5.99,1.73,15.35,4.5,0.9,-2.69
1.718,5.99,1.73,15.35,4.67,0.73,-2.66
1.721,5.99,1.73,15.35,4.68,0.56,-2.6
1.722,5.99,1.73,15.35,4.63,0.1,-2.44
1.722,5.99,1.73,15.35,4.48,-0.46,-2.27
1.722,-5.91,-4.88,7.63,4.48,-0.46,-2.27
1.722,-5.91,-4.88,7.63,4.3,-0.99,-2.12
1.725,-5.91,-4.88,7.63,4.21,-1.23,-2.07
1.728,-5.91,-4.88,7.63,4.04,-1.63,-2
1.728,-2.97,-2.22,0.7,4.04,-1.63,-2
1.729,-2.97,-2.22,0.7,3.91,-1.87,-1.99
1.731,-2.97,-2.22,0.7,3.81,-1.94,-2.01
1.733,-2.97,-2.22,0.7,3.79,-1.9,-2.02
1.735,-2.97,-2.22,0.7,3.75,-1.7,-2.02
1.75,-2.97,-2.22,0.7,3.67,-1.37,-2
1.75,-2.97,-2.22,0.7,2.85,0.7,-1.86
1.751,-2.97,-2.22,0.7,2.74,0.95,-1.84
1.751,-2.97,-2.22,0.7,2.62,1.16,-1.82
1.751,-2.97,-2.22,0.7,2.62,1.16,-1.82
1.751,-2.97,-2.22,0.7,2.62,1.16,-1.82
1.751,-2.97,-2.22,0.7,2.62,1.16,-1.82
1.751,-2.23,-2.77,-7.26,2.62,1.16,-1.82
1.751,-2.3,-3.47,-7.25,2.62,1.16,-1.82
1.752,-2.21,-3.77,-7.26,2.62,1.16,-1.82
1.752,-2.21,-3.77,-7.26,2.39,1.49,-1.78
1.753,-2.21,-3.77,-7.26,2.13,1.68,-1.74
1.754,-2.21,-3.77,-7.26,2,1.73,-1.72
1.758,-2.21,-3.77,-7.26,1.76,1.77,-1.66
1.758,-3.98,-3.59,-8.02,1.76,1.77,-1.66
1.758,-3.98,-3.59,-8.02,1.55,1.79,-1.6
1.76,-3.98,-3.59,-8.02,1.47,1.79,-1.56
1.766,-3.98,-3.59,-8.02,1.33,1.78,-1.5
1.766,-3.98,-3.59,-8.02,1.24,1.79,-1.42
1.768,-3.98,-3.59,-8.02,1.19,1.8,-1.35
1.768,-4.46,-2.31,-3.77,1.19,1.8,-1.35
1.769,-4.46,-2.31,-3.77,1.17,1.81,-1.31
1.771,-4.46,-2.31,-3.77,1.16,1.84,-1.24
1.774,-4.46,-2.31,-3.77,1.16,1.89,-1.18
1.775,-4.46,-2.31,-3.77,1.17,1.95,-1.12
1.79,-4.46,-2.31,-3.77,1.18,1.98,-1.1
1.791,-4.46,-2.31,-3.77,1.37,2.22,-1.13
1.791,-4.46,-2.31,-3.77,1.37,2.22,-1.13
1.791,-4.46,-2.31,-3.77,1.42,2.26,-1.16
1.794,-4.46,-2.31,-3.77,1.42,2.26,-1.16
1.794,-4.46,-2.31,-3.77,1.47,2.3,-1.21
1.794,-4.46,-2.31,-3.77,1.52,2.33,-1.27
1.795,1.41,0.65,5.05,1.52,2.33,-1.27
1.795,1.61,0.52,5.04,1.52,2.33,-1.27
1.795,1.84,0.37,5.03,1.52,2.33,-1.27
1.795,1.84,0.37,5.03,1.58,2.35,-1.34
1.795,1.84,0.37,5.03,1.74,2.4,-1.49
1.796,1.84,0.37,5.03,1.91,2.48,-1.63
1.799,1.84,0.37,5.03,2.07,2.63,-1.77
1.799,1.84,0.37,5.03,2.15,2.73,-1.85
1.8,3.93,1.85,8.74,2.15,2.73,-1.85
1.802,3.93,1.85,8.74,2.3,2.92,-2.01
1.803,3.93,1.85,8.74,2.45,3.09,-2.18
1.805,3.93,1.85,8.74,2.52,3.16,-2.27
1.807,3.93,1.85,8.74,2.66,3.31,-2.44
1.808,5.97,1.7,8.77,2.66,3.31,-2.44
1.809,5.97,1.7,8.77,2.8,3.45,-2.61
1.81,5.97,1.7,8.77,2.94,3.6,-2.77
1.813,5.97,1.7,8.77,3.01,3.69,-2.84
1.815,5.97,1.7,8.77,3.13,3.87,-2.98
1.832,5.97,1.7,8.77,3.25,4.06,-3.1
1.833,5.97,1.7,8.77,3.67,4.3,-3.79
1.833,5.97,1.7,8.77,3.67,4.3,-3.79
1.833,5.97,1.7,8.77,3.67,4.3,-3.79
1.833,5.97,1.7,8.77,3.7,4.25,-3.86
1.833,5.97,1.7,8.77,3.73,4.19,-3.91
1.834,5.97,1.7,8.77,3.73,4.19,-3.91
1.834,5.97,1.7,8.77,3.81,4.1,-3.98
1.834,3.53,-3.03,4.11,3.81,4.1,-3.98
1.834,4.47,-3.67,4.28,3.81,4.1,-3.98
1.834,4.47,-3.67,4.28,3.88,4.03,-4.01
1.835,4.47,-3.67,4.28,3.92,4.02,-4.01
1.838,4.47,-3.67,4.28,3.98,4,-3.99
1.838,-0.05,-5.07,2.49,3.98,4,-3.99
1.839,-0.05,-5.07,2.49,4.03,4,-3.93
1.841,-0.05,-5.07,2.49,4.08,3.99,-3.84
1.843,-0.05,-5.07,2.49,4.11,3.98,-3.79
1.845,-0.05,-5.07,2.49,4.16,3.95,-3.67
1.849,-0.05,-5.07,2.49,4.21,3.91,-3.53
1.849,-0.05,-5.07,2.49,4.23,3.87,-3.46
1.849,-4.79,-5.39,1.94,4.23,3.87,-3.46
1.851,-4.79,-5.39,1.94,4.27,3.79,-3.29
1.853,-4.79,-5.39,1.94,4.29,3.62,-3.13
1.854,-4.79,-5.39,1.94,4.3,3.47,-2.96
1.873,-4.79,-5.39,1.94,4.31,3.4,-2.88
1.874,-4.79,-5.39,1.94,4.07,3.5,-2.71
1.874,-4.79,-5.39,1.94,4,3.6,-2.76
1.875,-4.79,-5.39,1.94,3.91,3.7,-2.82
1.875,-4.79,-5.39,1.94,3.91,3.7,-2.82
1.875,-4.79,-5.39,1.94,3.91,3.7,-2.82
1.875,-4.79,-5.39,1.94,3.91,3.7,-2.82
1.875,5,-5.68,-5.46,3.91,3.7,-2.82
1.875,5.8,-6.27,-4.98,3.91,3.7,-2.82
1.876,5.8,-6.27,-4.98,3.82,3.8,-2.89
1.876,5.8,-6.27,-4.98,3.59,3.97,-3.05
1.876,5.8,-6.27,-4.98,3.32,4.1,-3.22
1.879,5.8,-6.27,-4.98,3.01,4.22,-3.4
1.879,5.8,-6.27,-4.98,2.83,4.3,-3.48
1.88,8.66,-5.21,-11.36,2.83,4.3,-3.48
1.881,8.66,-5.21,-11.36,2.46,4.45,-3.64
1.884,8.66,-5.21,-11.36,2.05,4.6,-3.78
1.885,8.66,-5.21,-11.36,1.6,4.76,-3.9
1.888,8.66,-5.21,-11.36,1.38,4.86,-3.95
1.888,5.35,-3.02,-16.97,1.38,4.86,-3.95
1.889,5.35,-3.02,-16.97,0.92,5.08,-4.02
1.891,5.35,-3.02,-16.97,0.45,5.33,-4.05
1.892,5.35,-3.02,-16.97,0.21,5.46,-4.04
1.894,5.35,-3.02,-16.97,-0.27,5.68,-3.98
1.91,5.35,-3.02,-16.97,-0.74,5.85,-3.87
1.91,5.35,-3.02,-16.97,-2.37,5.74,-2.97
1.91,5.35,-3.02,-16.97,-2.37,5.74,-2.97
1.911,5.35,-3.02,-16.97,-2.37,5.74,-2.97
1.911,5.35,-3.02,-16.97,-2.37,5.74,-2.97
1.911,5.35,-3.02,-16.97,-2.51,5.66,-2.84
1.911,-8.45,1.99,-9.72,-2.51,5.66,-2.84
1.912,-7.29,2.54,-9.3,-2.51,5.66,-2.84
1.912,-7.29,2.54,-9.3,-2.61,5.58,-2.71
1.912,-7.29,2.54,-9.3,-2.76,5.43,-2.45
1.914,-7.29,2.54,-9.3,-2.84,5.27,-2.21
1.915,-7.29,2.54,-9.3,-2.85,5.19,-2.1
1.919,-7.29,2.54,-9.3,-2.8,5.04,-1.91
1.919,-7.29,2.54,-9.3,-2.68,4.89,-1.73
1.919,-6.53,1.38,1.32,-2.68,4.89,-1.73
1.921,-6.53,1.38,1.32,-2.52,4.69,-1.56
1.923,-6.53,1.38,1.32,-2.42,4.59,-1.47
1.925,-6.53,1.38,1.32,-2.2,4.37,-1.3
1.928,-6.11,1.7,1.54,-2.2,4.37,-1.3
1.932,-6.11,1.7,1.54,-1.96,4.17,-1.11
1.933,-6.11,1.7,1.54,-1.67,4.03,-0.94
1.933,-6.11,1.7,1.54,-1.52,3.97,-0.86
1.935,-6.11,1.7,1.54,-1.19,3.86,-0.71
1.935,-6.11,1.7,1.54,-0.84,3.77,-0.58
1.951,-6.11,1.7,1.54,-0.66,3.74,-0.52
1.952,-6.11,1.7,1.54,0.96,3.35,-0.23
1.952,-6.11,1.7,1.54,0.96,3.35,-0.23
1.952,-6.11,1.7,1.54,0.96,3.35,-0.23
1.952,-6.11,1.7,1.54,1.11,3.25,-0.25
1.953,-6.11,1.7,1.54,1.24,3.14,-0.28
1.953,-6.11,1.7,1.54,1.24,3.14,-0.28
1.953,2.24,0.61,7.44,1.24,3.14,-0.28
1.953,2.73,0.65,7.92,1.24,3.14,-0.28
1.954,2.73,0.65,7.92,1.48,2.91,-0.37
1.954,2.73,0.65,7.92,1.58,2.78,-0.42
1.955,2.73,0.65,7.92,1.76,2.5,-0.51
1.958,2.73,0.65,7.92,1.89,2.2,-0.61
1.959,2.73,0.65,7.92,1.95,2.04,-0.65
1.959,4.6,-0.42,4.04,1.95,2.04,-0.65
1.961,4.6,-0.42,4.04,2.04,1.71,-0.73
1.967,4.6,-0.42,4.04,2.1,1.37,-0.81
1.968,4.6,-0.42,4.04,2.13,1.01,-0.88
1.975,4.6,-0.42,4.04,2.14,0.82,-0.92
1.975,4.6,-0.42,4.04,2.15,0.4,-1
1.975,4.6,-0.42,4.04,2.13,-0.02,-1.06
1.975,4.6,-0.42,4.04,2.11,-0.41,-1.12
1.975,3.72,-0.87,0.5,2.11,-0.41,-1.12
1.976,3.72,-0.87,0.5,2.09,-0.6,-1.14
1.993,3.72,-0.87,0.5,2.06,-0.95,-1.18
1.994,3.72,-0.87,0.5,1.89,-2.21,-1.29
1.994,3.72,-0.87,0.5,1.87,-2.34,-1.3
1.994,3.72,-0.87,0.5,1.85,-2.48,-1.31
1.998,3.72,-0.87,0.5,1.85,-2.48,-1.31
1.998,3.72,-0.87,0.5,1.85,-2.48,-1.31
1.998,3.72,-0.87,0.5,1.83,-2.61,-1.32
1.998,3.72,-0.87,0.5,1.81,-2.74,-1.33
1.999,5.04,-0.45,-2.84,1.81,-2.74,-1.33
1.999,4.92,-0.5,-2.96,1.81,-2.74,-1.33
1.999,4.82,-0.52,-3.08,1.81,-2.74,-1.33
1.999,4.82,-0.52,-3.08,1.77,-3,-1.35
2,4.82,-0.52,-3.08,1.72,-3.29,-1.36
2.001,4.82,-0.52,-3.08,1.69,-3.45,-1.36
2.001,4.82,-0.52,-3.08,1.65,-3.8,-1.35
2.002,3.65,-0.17,-3.38,1.65,-3.8,-1.35
2.002,3.65,-0.17,-3.38,1.6,-4.19,-1.34
2.003,3.65,-0.17,-3.38,1.58,-4.41,-1.33
2.005,3.65,-0.17,-3.38,1.56,-4.87,-1.3
2.008,3.65,-0.17,-3.38,1.53,-5.37,-1.28
2.009,1.15,0.74,-1.13,1.53,-5.37,-1.28
2.01,1.15,0.74,-1.13,1.51,-5.91,-1.27
2.011,1.15,0.74,-1.13,1.51,-6.19,-1.27
2.016,1.15,0.74,-1.13,1.49,-6.78,-1.29
2.017,1.15,0.74,-1.13,1.5,-7.4,-1.32
2.031,1.15,0.74,-1.13,1.51,-8.01,-1.37
2.031,1.15,0.74,-1.13,1.68,-10.04,-1.59
2.032,1.15,0.74,-1.13,1.68,-10.04,-1.59
2.032,1.15,0.74,-1.13,1.68,-10.04,-1.59
2.032,1.15,0.74,-1.13,1.71,-10.17,-1.62
2.033,1.15,0.74,-1.13,1.75,-10.26,-1.64
2.033,1.15,0.74,-1.13,1.75,-10.26,-1.64
2.034,0.23,-0.3,4.02,1.75,-10.26,-1.64
2.034,-0.97,-0.35,3.01,1.75,-10.26,-1.64
2.034,-1.72,-0.4,2.54,1.75,-10.26,-1.64
2.035,-1.72,-0.4,2.54,1.81,-10.29,-1.69
2.035,-1.72,-0.4,2.54,1.84,-10.24,-1.72
2.036,-1.72,-0.4,2.54,1.79,-9.81,-1.81
2.039,-1.72,-0.4,2.54,1.26,-8.35,-2.06
2.039,-1.72,-0.4,2.54,0.82,-6.7,-2.29
2.039,-2.91,-0.51,-2.45,0.82,-6.7,-2.29
2.041,-2.91,-0.51,-2.45,0.75,-6.23,-2.36
2.043,-2.91,-0.51,-2.45,0.74,-5.89,-2.36
2.045,-2.91,-0.51,-2.45,0.81,-5.88,-2.26
2.053,-2.91,-0.51,-2.45,0.84,-5.89,-2.18
2.053,-2.91,-0.51,-2.45,0.92,-5.87,-2
2.054,-2.91,-0.51,-2.45,0.98,-5.72,-1.8
2.054,-2.91,-0.51,-2.45,1.06,-5.39,-1.61
2.054,-4.75,0.66,4.13,1.06,-5.39,-1.61
2.055,-4.75,0.66,4.13,1.08,-5.15,-1.52
2.075,-4.75,0.66,4.13,1.15,-4.55,-1.35
2.076,-4.75,0.66,4.13,1.62,-1.93,-0.78
2.076,-4.75,0.66,4.13,1.62,-1.93,-0.78
2.076,-4.75,0.66,4.13,1.62,-1.93,-0.78
2.076,-4.75,0.66,4.13,1.69,-1.72,-0.73
2.076,-4.75,0.66,4.13,1.76,-1.54,-0.69
2.076,-4.75,0.66,4.13,1.76,-1.54,-0.69
2.077,-4.75,0.66,4.13,1.91,-1.26,-0.6
2.077,1.94,1.68,6.8,1.91,-1.26,-0.6
2.077,1.44,1.51,6.66,1.91,-1.26,-0.6
2.077,1.31,1.38,6.66,1.91,-1.26,-0.6
2.077,1.31,1.38,6.66,2.05,-1.08,-0.53
2.078,1.31,1.38,6.66,2.19,-0.98,-0.46
2.078,1.31,1.38,6.66,2.26,-0.94,-0.44
2.078,4.6,-0.5,4.58,2.26,-0.94,-0.44
2.081,4.6,-0.5,4.58,2.38,-0.89,-0.39
2.083,4.6,-0.5,4.58,2.48,-0.88,-0.34
2.083,4.6,-0.5,4.58,2.59,-0.89,-0.29
2.085,4.6,-0.5,4.58,2.63,-0.89,-0.27
2.088,4.6,-0.5,4.58,2.71,-0.91,-0.23
2.088,5.28,-1.94,1.96,2.71,-0.91,-0.23
2.089,5.28,-1.94,1.96,2.79,-0.92,-0.2
2.091,5.28,-1.94,1.96,2.83,-0.93,-0.18
2.092,5.28,-1.94,1.96,2.9,-0.93,-0.15
2.095,5.28,-1.94,1.96,2.96,-0.94,-0.11
2.11,5.28,-1.94,1.96,3.02,-0.94,-0.07
2.111,5.28,-1.94,1.96,3.25,-1.07,0.24
2.111,5.28,-1.94,1.96,3.27,-1.1,0.3
2.111,5.28,-1.94,1.96,3.29,-1.12,0.36
2.112,5.28,-1.94,1.96,3.29,-1.12,0.36
2.112,5.28,-1.94,1.96,3.29,-1.12,0.36
2.112,5.28,-1.94,1.96,3.29,-1.12,0.36
2.112,1.99,-0.96,-1.27,3.29,-1.12,0.36
2.113,1.81,-1.5,-1.09,3.29,-1.12,0.36
2.113,1.71,-1.78,-0.97,3.29,-1.12,0.36
2.113,1.71,-1.78,-0.97,3.32,-1.17,0.49
2.116,1.71,-1.78,-0.97,3.34,-1.19,0.56
2.117,1.71,-1.78,-0.97,3.35,-1.21,0.69
2.119,1.71,-1.78,-0.97,3.35,-1.18,0.82
2.119,1.71,-1.78,-0.97,3.31,-1.1,0.94
2.12,0.09,-1.61,-3.31,3.31,-1.1,0.94
2.122,0.09,-1.61,-3.31,3.28,-1.05,0.99
2.123,0.09,-1.61,-3.31,3.18,-0.97,1.04
2.125,0.09,-1.61,-3.31,3.02,-0.94,1.02
2.128,0.09,-1.61,-3.31,2.76,-1.04,0.88
2.128,2.05,-3.1,-6.3,2.76,-1.04,0.88
2.129,2.05,-3.1,-6.3,2.59,-1.16,0.78
2.131,2.05,-3.1,-6.3,2.18,-1.55,0.46
2.133,2.05,-3.1,-6.3,1.71,-2.07,0.07
2.135,2.05,-3.1,-6.3,1.48,-2.34,-0.13
2.153,2.05,-3.1,-6.3,1.05,-2.81,-0.54
2.153,2.05,-3.1,-6.3,-0.15,-3.84,-1.54
2.153,2.05,-3.1,-6.3,-0.15,-3.84,-1.54
2.154,2.05,-3.1,-6.3,-0.15,-3.84,-1.54
2.157,2.05,-3.1,-6.3,-0.24,-3.9,-1.54
2.158,2.05,-3.1,-6.3,-0.33,-3.96,-1.53
2.158,2.05,-3.1,-6.3,-0.33,-3.96,-1.53
2.158,-0.72,-2.39,-5.94,-0.33,-3.96,-1.53
2.158,-0.92,-2.46,-5.95,-0.33,-3.96,-1.53
2.158,-1.16,-2.42,-6.03,-0.33,-3.96,-1.53
2.159,-1.16,-2.42,-6.03,-0.42,-4.01,-1.5
2.159,-1.16,-2.42,-6.03,-0.56,-4.1,-1.42
2.159,-1.16,-2.42,-6.03,-0.68,-4.15,-1.3
2.159,-1.16,-2.42,-6.03,-0.73,-4.17,-1.23
2.16,-1.16,-2.42,-6.03,-0.83,-4.2,-1.07
2.16,-5.16,-1.38,-2.56,-0.83,-4.2,-1.07
2.161,-5.16,-1.38,-2.56,-0.91,-4.22,-0.9
2.167,-5.16,-1.38,-2.56,-0.97,-4.24,-0.74
2.167,-5.16,-1.38,-2.56,-0.97,-4.32,-0.64
2.168,-5.16,-1.38,-2.56,-0.95,-4.49,-0.44
2.168,-5.22,0.83,1.98,-0.95,-4.49,-0.44
2.17,-5.22,0.83,1.98,-0.93,-4.61,-0.27
2.171,-5.22,0.83,1.98,-0.95,-4.62,-0.13
2.175,-5.22,0.83,1.98,-0.97,-4.6,-0.07
2.176,-5.22,0.83,1.98,-0.99,-4.55,0.03
2.19,-5.22,0.83,1.98,-0.99,-4.48,0.11
2.191,-5.22,0.83,1.98,-0.93,-3.91,0.31
2.191,-5.22,0.83,1.98,-0.93,-3.91,0.31
2.192,-5.22,0.83,1.98,-0.93,-3.91,0.31
2.192,-5.22,0.83,1.98,-0.93,-3.91,0.31
2.192,-5.22,0.83,1.98,-0.91,-3.81,0.32
2.192,-5.22,0.83,1.98,-0.88,-3.7,0.34
2.192,1.09,3.25,2.56,-0.88,-3.7,0.34
2.193,0.35,3.42,2.41,-0.88,-3.7,0.34
2.193,0.35,3.42,2.41,-0.8,-3.49,0.36
2.193,0.35,3.42,2.41,-0.71,-3.29,0.38
2.195,0.35,3.42,2.41,-0.66,-3.21,0.39
2.198,0.35,3.42,2.41,-0.55,-3.07,0.42
2.198,1.34,3.59,3.1,-0.55,-3.07,0.42
2.199,1.34,3.59,3.1,-0.43,-2.95,0.45
2.2,1.34,3.59,3.1,-0.37,-2.89,0.46
2.202,1.34,3.59,3.1,-0.25,-2.8,0.49
2.205,1.34,3.59,3.1,-0.14,-2.69,0.51
2.209,1.34,3.59,3.1,-0.03,-2.57,0.52
2.209,1.55,1.2,0.97,-0.03,-2.57,0.52
2.21,1.55,1.2,0.97,0.02,-2.49,0.52
2.211,1.55,1.2,0.97,0.12,-2.32,0.52
2.213,1.55,1.2,0.97,0.22,-2.11,0.52
2.215,1.55,1.2,0.97,0.31,-1.86,0.52
2.232,1.55,1.2,0.97,0.36,-1.73,0.52
2.233,1.55,1.2,0.97,0.84,-0.72,0.58
2.233,1.55,1.2,0.97,0.91,-0.65,0.6
2.233,1.55,1.2,0.97,0.97,-0.59,0.62
2.233,1.55,1.2,0.97,0.97,-0.59,0.62
2.234,1.55,1.2,0.97,0.97,-0.59,0.62
2.234,1.55,1.2,0.97,0.97,-0.59,0.62
2.234,-1.53,-3.28,0.75,0.97,-0.59,0.62
2.234,-1.79,-3.38,0.82,0.97,-0.59,0.62
2.234,-1.88,-3.45,0.87,0.97,-0.59,0.62
2.235,-1.88,-3.45,0.87,1.04,-0.53,0.65
2.235,-1.88,-3.45,0.87,1.19,-0.42,0.71
2.235,-1.88,-3.45,0.87,1.34,-0.36,0.77
2.239,-1.88,-3.45,0.87,1.49,-0.31,0.85
2.239,-1.88,-3.45,0.87,1.57,-0.3,0.89
2.24,-3.83,-4.09,1.6,1.57,-0.3,0.89
2.241,-3.83,-4.09,1.6,1.73,-0.3,0.97
2.243,-3.83,-4.09,1.6,1.89,-0.34,1.06
2.245,-3.83,-4.09,1.6,1.98,-0.37,1.1
2.249,-3.83,-4.09,1.6,2.15,-0.48,1.19
2.249,-5.12,-2.38,3.18,2.15,-0.48,1.19
2.251,-5.12,-2.38,3.18,2.33,-0.63,1.28
2.251,-5.12,-2.38,3.18,2.5,-0.84,1.37
2.253,-5.12,-2.38,3.18,2.6,-0.96,1.41
2.255,-5.12,-2.38,3.18,2.77,-1.25,1.48
2.274,-5.12,-2.38,3.18,2.94,-1.57,1.53
2.275,-5.12,-2.38,3.18,3.24,-2.98,1.35
2.275,-5.12,-2.38,3.18,3.24,-2.98,1.35
2.275,-5.12,-2.38,3.18,3.24,-2.98,1.35
2.275,-5.12,-2.38,3.18,3.24,-2.98,1.35
2.276,-5.12,-2.38,3.18,3.15,-3.16,1.24
2.276,-5.12,-2.38,3.18,3,-3.26,1.12
2.276,1.79,2.16,-2.1,3,-3.26,1.12
2.276,1.27,1.7,-1.72,3,-3.26,1.12
2.276,1.27,1.7,-1.72,2.56,-3.27,0.85
2.276,1.27,1.7,-1.72,2.02,-3.04,0.55
2.277,1.27,1.7,-1.72,1.75,-2.89,0.41
2.279,1.27,1.7,-1.72,1.35,-2.67,0.15
2.279,1.27,1.7,-1.72,1.08,-2.53,-0.06
2.279,3.36,1.84,-7.64,1.08,-2.53,-0.06
2.282,3.36,1.84,-7.64,0.93,-2.42,-0.23
2.284,3.36,1.84,-7.64,0.88,-2.38,-0.29
2.285,3.36,1.84,-7.64,0.81,-2.29,-0.34
2.288,3.36,1.84,-7.64,0.77,-2.21,-0.32
2.288,1.43,-0.22,-3.58,0.77,-2.21,-0.32
2.289,1.43,-0.22,-3.58,0.76,-2.17,-0.3
2.291,1.43,-0.22,-3.58,0.75,-2.07,-0.23
2.293,1.43,-0.22,-3.58,0.73,-1.95,-0.13
2.295,1.43,-0.22,-3.58,0.72,-1.83,-0.03
2.313,1.43,-0.22,-3.58,0.72,-1.77,0.02
2.314,1.43,-0.22,-3.58,0.9,-1.5,0.35
2.314,1.43,-0.22,-3.58,0.9,-1.5,0.35
2.314,1.43,-0.22,-3.58,0.9,-1.5,0.35
2.314,1.43,-0.22,-3.58,0.93,-1.48,0.37
2.314,1.43,-0.22,-3.58,0.97,-1.45,0.38
2.317,1.43,-0.22,-3.58,0.97,-1.45,0.38
2.317,1.43,-0.22,-3.58,1.01,-1.43,0.4
2.317,1.43,-0.22,-3.58,1.1,-1.38,0.42
2.318,-1.39,-0.74,-0.34,1.1,-1.38,0.42
2.318,-1.66,-0.85,-0.16,1.1,-1.38,0.42
2.318,-1.66,-0.85,-0.16,1.2,-1.33,0.45
2.319,-1.66,-0.85,-0.16,1.31,-1.26,0.48
2.319,-1.66,-0.85,-0.16,1.37,-1.23,0.49
2.319,-3.39,0.12,1.13,1.37,-1.23,0.49
2.321,-3.39,0.12,1.13,1.5,-1.18,0.52
2.323,-3.39,0.12,1.13,1.61,-1.12,0.55
2.325,-3.39,0.12,1.13,1.74,-1.06,0.59
2.329,-3.39,0.12,1.13,1.8,-1.04,0.61
2.33,-4.99,1.5,1.68,1.8,-1.04,0.61
2.34,-4.99,1.5,1.68,1.92,-0.99,0.65
2.341,-4.99,1.5,1.68,2.05,-0.95,0.7
2.341,-4.99,1.5,1.68,2.11,-0.94,0.72
2.342,-4.99,1.5,1.68,2.22,-0.88,0.77
2.355,-4.99,1.5,1.68,2.29,-0.8,0.81
2.355,-4.99,1.5,1.68,2.32,-0.67,0.87
2.355,-4.99,1.5,1.68,2.32,-0.72,0.87
2.355,-4.99,1.5,1.68,2.31,-0.79,0.86
2.355,-4.99,1.5,1.68,2.31,-0.79,0.86
2.356,-4.99,1.5,1.68,2.31,-0.79,0.86
2.356,-4.99,1.5,1.68,2.3,-0.88,0.85
2.356,-4.99,1.5,1.68,2.31,-0.98,0.85
2.356,-4.99,1.5,1.68,2.32,-1.19,0.83
2.356,0.26,-0.7,1.74,2.32,-1.19,0.83
2.356,0.06,-0.96,2.08,2.32,-1.19,0.83
2.357,-0.05,-1.09,2.25,2.32,-1.19,0.83
2.357,-0.05,-1.09,2.25,2.33,-1.28,0.81
2.358,-0.05,-1.09,2.25,2.36,-1.44,0.79
2.358,0.92,-1.2,2.74,2.36,-1.44,0.79
2.358,0.92,-1.2,2.74,2.41,-1.52,0.76
2.362,0.92,-1.2,2.74,2.46,-1.52,0.73
2.362,0.92,-1.2,2.74,2.49,-1.49,0.72
2.368,0.92,-1.2,2.74,2.53,-1.37,0.68
2.369,0.92,-1.2,2.74,2.56,-1.19,0.65
2.373,1.22,-0.44,0.98,2.56,-1.19,0.65
2.374,1.22,-0.44,0.98,2.59,-1,0.61
2.375,1.22,-0.44,0.98,2.6,-0.9,0.59
2.375,1.22,-0.44,0.98,2.6,-0.69,0.54
2.375,1.22,-0.44,0.98,2.59,-0.51,0.5
2.391,1.22,-0.44,0.98,2.58,-0.43,0.47
2.392,1.22,-0.44,0.98,2.49,0.06,0.23
2.392,1.22,-0.44,0.98,2.49,0.06,0.23
2.392,1.22,-0.44,0.98,2.49,0.06,0.23
2.392,1.22,-0.44,0.98,2.48,0.09,0.22
2.392,1.22,-0.44,0.98,2.47,0.12,0.22
2.392,1.22,-0.44,0.98,2.47,0.12,0.22
2.392,1.22,-0.44,0.98,2.46,0.2,0.21
2.393,0.61,0.16,0.15,2.46,0.2,0.21
2.393,0.54,-0.12,0.52,2.46,0.2,0.21
2.393,0.53,-0.25,0.69,2.46,0.2,0.21
2.393,0.53,-0.25,0.69,2.45,0.23,0.21
2.395,0.53,-0.25,0.69,2.43,0.31,0.21
2.405,0.53,-0.25,0.69,2.42,0.39,0.21
2.406,0.53,-0.25,0.69,2.4,0.43,0.22
2.406,-0.47,-0.87,-0.25,2.4,0.43,0.22
2.406,-0.47,-0.87,-0.25,2.35,0.55,0.21
2.406,-0.47,-0.87,-0.25,2.33,0.6,0.21
2.406,-0.47,-0.87,-0.25,2.28,0.68,0.2
2.407,-0.47,-0.87,-0.25,2.26,0.72,0.2
2.408,-0.63,-0.86,-0.86,2.26,0.72,0.2
2.41,-0.63,-0.86,-0.86,2.2,0.8,0.18
2.411,-0.63,-0.86,-0.86,2.14,0.9,0.18
2.413,-0.63,-0.86,-0.86,2.06,1,0.17
2.415,-0.63,-0.86,-0.86,2.03,1.06,0.17
2.429,-0.63,-0.86,-0.86,1.95,1.17,0.16
2.429,-0.63,-0.86,-0.86,1.67,1.59,0.23
2.429,-0.63,-0.86,-0.86,1.67,1.59,0.23
2.43,-0.63,-0.86,-0.86,1.67,1.59,0.23
2.43,-0.63,-0.86,-0.86,1.63,1.64,0.24
2.43,-0.63,-0.86,-0.86,1.63,1.64,0.24
2.43,-0.63,-0.86,-0.86,1.6,1.68,0.26
2.43,-1.46,-0.55,-1.35,1.6,1.68,0.26
2.43,-1.34,-0.72,-1.17,1.6,1.68,0.26
2.43,-1.28,-0.8,-1.1,1.6,1.68,0.26
2.431,-1.28,-0.8,-1.1,1.54,1.74,0.29
2.432,-1.28,-0.8,-1.1,1.47,1.8,0.33
2.434,-1.28,-0.8,-1.1,1.41,1.84,0.36
2.438,-1.28,-0.8,-1.1,1.38,1.87,0.38
2.438,-1.28,-0.8,-1.1,1.31,1.91,0.4
2.438,-1.36,-1,-0.96,1.31,1.91,0.4
2.44,-1.36,-1,-0.96,1.25,1.96,0.42
2.442,-1.36,-1,-0.96,1.22,1.99,0.43
2.444,-1.36,-1,-0.96,1.14,2.07,0.43
2.447,-1.36,-1,-0.96,1.07,2.16,0.43
2.448,-1.3,-1.15,-0.86,1.07,2.16,0.43
2.448,-1.3,-1.15,-0.86,1,2.22,0.44
2.45,-1.3,-1.15,-0.86,0.97,2.24,0.44
2.452,-1.3,-1.15,-0.86,0.92,2.28,0.45
2.454,-1.3,-1.15,-0.86,0.89,2.3,0.45
2.47,-1.3,-1.15,-0.86,0.86,2.31,0.45
2.47,-1.3,-1.15,-0.86,0.81,2.22,0.44
2.47,-1.3,-1.15,-0.86,0.8,2.2,0.44
2.47,-1.3,-1.15,-0.86,0.8,2.17,0.44
2.471,-1.3,-1.15,-0.86,0.8,2.17,0.44
2.471,-1.3,-1.15,-0.86,0.8,2.17,0.44
2.471,-1.3,-1.15,-0.86,0.8,2.17,0.44
2.475,-0.22,0,0.4,0.8,2.17,0.44
2.475,-0.14,-0.03,0.39,0.8,2.17,0.44
2.476,-0.06,-0.06,0.38,0.8,2.17,0.44
2.476,-0.06,-0.06,0.38,0.78,2.12,0.42
2.476,-0.06,-0.06,0.38,0.78,2.1,0.41
2.477,-0.06,-0.06,0.38,0.77,2.04,0.4
2.478,-0.06,-0.06,0.38,0.76,1.99,0.38
2.478,-0.12,0.12,0.26,0.76,1.99,0.38
2.478,-0.12,0.12,0.26,0.75,1.92,0.36
2.485,-0.12,0.12,0.26,0.74,1.9,0.35
2.486,-0.12,0.12,0.26,0.73,1.84,0.33
2.486,-0.12,0.12,0.26,0.71,1.78,0.31
2.491,-0.12,0.12,0.26,0.7,1.75,0.3
2.491,-0.12,0.12,0.26,0.69,1.69,0.28
2.492,0.03,0.37,-0.17,0.69,1.69,0.28
2.492,0.03,0.37,-0.17,0.67,1.64,0.26
2.493,0.03,0.37,-0.17,0.64,1.58,0.24
2.495,0.03,0.37,-0.17,0.62,1.55,0.22
2.51,0.03,0.37,-0.17,0.59,1.48,0.2
2.511,0.03,0.37,-0.17,0.42,1.22,0.11
2.511,0.03,0.37,-0.17,0.42,1.22,0.11
2.511,0.03,0.37,-0.17,0.4,1.2,0.1
2.511,0.03,0.37,-0.17,0.4,1.2,0.1
2.512,0.03,0.37,-0.17,0.37,1.18,0.1
2.512,0.03,0.37,-0.17,0.37,1.18,0.1
2.512,-0.25,0.64,-1.23,0.37,1.18,0.1
2.512,-0.14,0.6,-1.23,0.37,1.18,0.1
2.513,-0.09,0.58,-1.23,0.37,1.18,0.1
2.513,-0.09,0.58,-1.23,0.35,1.16,0.09
2.513,-0.09,0.58,-1.23,0.3,1.14,0.07
2.514,-0.09,0.58,-1.23,0.26,1.12,0.06
2.518,-0.09,0.58,-1.23,0.23,1.1,0.06
2.519,-0.09,0.58,-1.23,0.19,1.09,0.05
2.519,-0.53,0.35,-1.45,0.19,1.09,0.05
2.52,-0.53,0.35,-1.45,0.14,1.09,0.04
2.522,-0.53,0.35,-1.45,0.09,1.08,0.03
2.524,-0.53,0.35,-1.45,0.07,1.08,0.03
2.527,-0.53,0.35,-1.45,0.02,1.07,0.02
2.527,-0.64,-0.05,-1.34,0.02,1.07,0.02
2.528,-0.64,-0.05,-1.34,-0.02,1.06,0.01
2.536,-0.64,-0.05,-1.34,-0.03,1.05,0
2.537,-0.64,-0.05,-1.34,-0.07,1.03,0
2.537,-0.64,-0.05,-1.34,-0.09,1,0
2.549,-0.64,-0.05,-1.34,-0.11,0.98,0
2.549,-0.64,-0.05,-1.34,-0.13,0.83,0.02
2.549,-0.64,-0.05,-1.34,-0.13,0.83,0.02
2.55,-0.64,-0.05,-1.34,-0.13,0.83,0.02
2.55,-0.64,-0.05,-1.34,-0.13,0.81,0.02
2.55,-0.64,-0.05,-1.34,-0.13,0.78,0.02
2.55,-0.64,-0.05,-1.34,-0.13,0.78,0.02
2.55,-1.05,-0.22,0.1,-0.13,0.78,0.02
2.55,-0.97,-0.2,0.03,-0.13,0.78,0.02
2.55,-0.97,-0.2,0.03,-0.13,0.72,0.02
2.552,-0.97,-0.2,0.03,-0.12,0.7,0.02
2.554,-0.97,-0.2,0.03,-0.11,0.64,0.01
2.557,-0.97,-0.2,0.03,-0.1,0.59,0.01
2.558,-0.75,-0.36,0.57,-0.1,0.59,0.01
2.558,-0.75,-0.36,0.57,-0.08,0.54,0
2.56,-0.75,-0.36,0.57,-0.08,0.51,-0.01
2.562,-0.75,-0.36,0.57,-0.06,0.47,-0.02
2.569,-0.75,-0.36,0.57,-0.04,0.43,-0.02
2.57,-0.75,-0.36,0.57,-0.02,0.4,-0.03
2.57,-0.75,-0.54,0.94,-0.02,0.4,-0.03
2.57,-0.75,-0.54,0.94,-0.01,0.38,-0.03
2.574,-0.75,-0.54,0.94,0.02,0.35,-0.04
2.574,-0.75,-0.54,0.94,0.04,0.32,-0.05
2.575,-0.75,-0.54,0.94,0.05,0.31,-0.05
2.591,-0.75,-0.54,0.94,0.06,0.28,-0.05
2.591,-0.75,-0.54,0.94,0.1,0.17,-0.06
2.592,-0.75,-0.54,0.94,0.1,0.16,-0.06
2.592,-0.75,-0.54,0.94,0.1,0.15,-0.06
2.592,-0.75,-0.54,0.94,0.1,0.15,-0.06
2.592,-0.75,-0.54,0.94,0.1,0.15,-0.06
2.592,-0.75,-0.54,0.94,0.1,0.15,-0.06
2.592,-0.75,-0.54,0.94,0.11,0.14,-0.06
2.593,-1.06,-0.52,0.6,0.11,0.14,-0.06
2.593,-1.04,-0.52,0.6,0.11,0.14,-0.06
2.593,-1.02,-0.53,0.6,0.11,0.14,-0.06
2.593,-1.02,-0.53,0.6,0.1,0.12,-0.06
2.595,-1.02,-0.53,0.6,0.1,0.11,-0.06
2.601,-1.02,-0.53,0.6,0.09,0.1,-0.06
2.602,-1.17,-0.3,0.26,0.09,0.1,-0.06
2.602,-1.17,-0.3,0.26,0.09,0.08,-0.06
2.602,-1.17,-0.3,0.26,0.08,0.07,-0.06
2.603,-1.17,-0.3,0.26,0.07,0.06,-0.06
2.605,-1.17,-0.3,0.26,0.06,0.05,-0.06
2.607,-1.17,-0.3,0.26,0.04,0.05,-0.06
2.608,-1.22,-0.23,-0.08,0.04,0.05,-0.06
2.608,-1.22,-0.23,-0.08,0.02,0.05,-0.06
2.61,-1.22,-0.23,-0.08,0,0.05,-0.05
2.612,-1.22,-0.23,-0.08,-0.01,0.05,-0.05
2.614,-1.22,-0.23,-0.08,-0.03,0.05,-0.05
2.632,-1.22,-0.23,-0.08,-0.06,0.06,-0.04
2.633,-1.22,-0.23,-0.08,-0.16,0.08,-0.03
2.634,-1.22,-0.23,-0.08,-0.16,0.08,-0.03
2.634,-1.22,-0.23,-0.08,-0.16,0.09,-0.03
2.634,-1.22,-0.23,-0.08,-0.17,0.09,-0.03
2.634,-1.22,-0.23,-0.08,-0.17,0.09,-0.03
2.634,-1.22,-0.23,-0.08,-0.17,0.09,-0.03
2.635,-1.22,-0.23,-0.08,-0.19,0.11,-0.03
2.638,-0.98,-0.4,0.11,-0.19,0.11,-0.03
2.638,-0.96,-0.39,0.09,-0.19,0.11,-0.03
2.639,-0.96,-0.39,0.09,-0.21,0.13,-0.03
2.639,-0.96,-0.39,0.09,-0.21,0.13,-0.02
2.639,-0.95,-0.39,0.07,-0.21,0.13,-0.02
2.639,-0.95,-0.39,0.07,-0.23,0.14,-0.02
2.639,-0.95,-0.39,0.07,-0.24,0.16,-0.02
2.641,-0.95,-0.39,0.07,-0.24,0.16,-0.02
2.643,-0.95,-0.39,0.07,-0.25,0.17,-0.02
2.644,-0.95,-0.39,0.07,-0.26,0.18,-0.02
2.648,-0.95,-0.39,0.07,-0.27,0.18,-0.02
2.648,-0.9,-0.44,0.8,-0.27,0.18,-0.02
2.649,-0.9,-0.44,0.8,-0.27,0.18,-0.02
2.651,-0.9,-0.44,0.8,-0.27,0.19,-0.03
2.653,-0.9,-0.44,0.8,-0.26,0.2,-0.03
2.655,-0.9,-0.44,0.8,-0.26,0.2,-0.02
2.671,-0.9,-0.44,0.8,-0.26,0.2,-0.03
2.671,-0.9,-0.44,0.8,-0.18,0.17,-0.01
2.672,-0.9,-0.44,0.8,-0.17,0.16,-0.01
2.672,-0.9,-0.44,0.8,-0.17,0.16,-0.01
2.672,-0.9,-0.44,0.8,-0.16,0.16,-0.01
2.672,-0.9,-0.44,0.8,-0.14,0.15,-0.01
2.672,-0.9,-0.44,0.8,-0.14,0.15,-0.01
2.673,-0.9,-0.44,0.8,-0.13,0.13,-0.01
2.673,-0.88,-0.63,1.92,-0.13,0.13,-0.01
2.673,-0.86,-0.6,1.88,-0.13,0.13,-0.01
2.674,-0.84,-0.59,1.85,-0.13,0.13,-0.01
2.674,-0.84,-0.59,1.85,-0.1,0.11,-0.01
2.675,-0.84,-0.59,1.85,-0.07,0.08,-0.02
2.678,-0.84,-0.59,1.85,-0.04,0.06,-0.02
2.678,-0.7,-0.55,2.07,-0.04,0.06,-0.02
2.679,-0.7,-0.55,2.07,-0.02,0.04,-0.02
2.686,-0.7,-0.55,2.07,0.01,0.01,-0.03
2.687,-0.7,-0.55,2.07,0.04,-0.02,-0.04
2.687,-0.7,-0.55,2.07,0.05,-0.03,-0.04
2.691,-0.7,-0.55,2.07,0.08,-0.06,-0.04
2.692,-0.64,-0.4,1.81,0.08,-0.06,-0.04
2.692,-0.64,-0.4,1.81,0.11,-0.09,-0.05
2.698,-0.64,-0.4,1.81,0.13,-0.12,-0.06
2.698,-0.64,-0.4,1.81,0.14,-0.13,-0.06
2.699,-0.64,-0.4,1.81,0.15,-0.16,-0.06
2.71,-0.64,-0.4,1.81,0.17,-0.19,-0.06
2.711,-0.64,-0.4,1.81,0.18,-0.23,-0.07
2.711,-0.64,-0.4,1.81,0.17,-0.23,-0.07
2.711,-0.64,-0.4,1.81,0.17,-0.23,-0.07
2.711,-0.64,-0.4,1.81,0.17,-0.23,-0.07
2.711,-0.64,-0.4,1.81,0.17,-0.23,-0.07
2.712,-0.64,-0.4,1.81,0.17,-0.23,-0.07
2.712,-0.82,-0.3,0.75,0.17,-0.23,-0.07
2.712,-0.82,-0.3,0.76,0.17,-0.23,-0.07
2.712,-0.82,-0.31,0.77,0.17,-0.23,-0.07
2.712,-0.82,-0.31,0.77,0.16,-0.23,-0.07
2.713,-0.82,-0.31,0.77,0.15,-0.21,-0.06
2.715,-0.82,-0.31,0.77,0.14,-0.21,-0.06
2.718,-0.82,-0.31,0.77,0.12,-0.19,-0.06
2.719,-0.99,-0.3,0.26,0.12,-0.19,-0.06
2.719,-0.99,-0.3,0.26,0.1,-0.18,-0.05
2.721,-0.99,-0.3,0.26,0.07,-0.15,-0.05
2.723,-0.99,-0.3,0.26,0.07,-0.14,-0.04
2.725,-0.99,-0.3,0.26,0.04,-0.11,-0.04
2.728,-0.99,-0.3,0.26,0.01,-0.08,-0.03
2.728,-0.99,-0.25,0.15,0.01,-0.08,-0.03
2.729,-0.99,-0.25,0.15,-0.01,-0.05,-0.03
2.731,-0.99,-0.25,0.15,-0.03,-0.03,-0.03
2.735,-0.99,-0.25,0.15,-0.05,0,-0.02
2.735,-0.99,-0.25,0.15,-0.08,0.03,-0.02
2.752,-0.99,-0.25,0.15,-0.09,0.05,-0.01
2.752,-0.99,-0.25,0.15,-0.17,0.18,0
2.753,-0.99,-0.25,0.15,-0.17,0.18,0
2.753,-0.99,-0.25,0.15,-0.17,0.18,0
2.753,-0.99,-0.25,0.15,-0.17,0.18,0
2.753,-0.99,-0.25,0.15,-0.18,0.19,0
2.754,-0.99,-0.25,0.15,-0.18,0.2,0
2.754,-0.99,-0.25,0.15,-0.18,0.21,0
2.754,-0.95,-0.3,0.6,-0.18,0.21,0
2.754,-0.94,-0.29,0.59,-0.18,0.21,0
2.755,-0.92,-0.28,0.56,-0.18,0.21,0
2.755,-0.92,-0.28,0.56,-0.19,0.23,0
2.755,-0.92,-0.28,0.56,-0.19,0.24,0.01
2.759,-0.92,-0.28,0.56,-0.18,0.25,0.01
2.759,-0.96,-0.36,1.05,-0.18,0.25,0.01
2.759,-0.96,-0.36,1.05,-0.18,0.25,0.01
2.761,-0.96,-0.36,1.05,-0.17,0.25,0.01
2.763,-0.96,-0.36,1.05,-0.16,0.25,0.02
2.768,-0.96,-0.36,1.05,-0.15,0.25,0.02
2.769,-0.96,-0.36,1.05,-0.15,0.24,0.02
2.769,-0.96,-0.36,1.05,-0.14,0.23,0.02
2.77,-0.98,-0.43,1.18,-0.14,0.23,0.02
2.772,-0.98,-0.43,1.18,-0.13,0.22,0.02
2.773,-0.98,-0.43,1.18,-0.12,0.21,0.02
2.775,-0.98,-0.43,1.18,-0.11,0.2,0.02
2.792,-0.98,-0.43,1.18,-0.09,0.18,0.02
2.793,-0.98,-0.43,1.18,-0.02,0.07,0.01
2.793,-0.98,-0.43,1.18,-0.02,0.07,0.01
2.793,-0.98,-0.43,1.18,-0.01,0.06,0.01
2.793,-0.98,-0.43,1.18,0,0.04,0.01
2.793,-0.98,-0.43,1.18,0,0.04,0.01
2.794,-0.98,-0.43,1.18,0,0.04,0.01
2.794,-0.98,-0.43,1.18,0.03,0.01,0
2.794,-0.75,-0.36,1.41,0.03,0.01,0
2.798,-0.72,-0.35,1.38,0.03,0.01,0
2.798,-0.71,-0.34,1.37,0.03,0.01,0
2.798,-0.71,-0.34,1.37,0.05,-0.03,0
2.798,-0.71,-0.34,1.37,0.06,-0.05,-0.01
2.799,-0.71,-0.34,1.37,0.08,-0.08,-0.02
2.799,-0.64,-0.25,1.21,0.08,-0.08,-0.02
2.799,-0.64,-0.25,1.21,0.09,-0.11,-0.02
2.804,-0.64,-0.25,1.21,0.1,-0.13,-0.03
2.805,-0.64,-0.25,1.21,0.11,-0.14,-0.03
2.805,-0.64,-0.25,1.21,0.11,-0.16,-0.04
2.809,-0.64,-0.25,1.21,0.11,-0.17,-0.04
2.809,-0.74,-0.29,0.72,0.11,-0.17,-0.04
2.809,-0.74,-0.29,0.72,0.11,-0.17,-0.04
2.811,-0.74,-0.29,0.72,0.11,-0.17,-0.04
