time,ax,ay,az,wx,wy,wz
0.001,-0.02,0.02,0.17,-0.03,-0.06,0
0.001,-0.02,0.02,0.17,-0.03,-0.05,0
0.002,-0.02,0.02,0.17,-0.02,-0.05,0
0.016,-0.02,0.02,0.17,-0.02,-0.04,0
0.017,-0.02,0.02,0.17,-0.01,-0.01,0
0.017,-0.02,0.02,0.17,-0.01,-0.01,0
0.017,-0.02,0.02,0.17,-0.01,-0.01,0
0.017,-0.02,0.02,0.17,-0.01,-0.01,0
0.017,-0.02,0.02,0.17,0,-0.01,0
0.017,-0.02,0.02,0.17,0,-0.01,0
0.017,-0.01,0.02,0.22,0,-0.01,0
0.017,-0.01,0.02,0.22,0,-0.01,0
0.018,-0.01,0.02,0.22,0,-0.01,0
0.018,-0.01,0.02,0.22,0,0,0
0.018,-0.01,0.02,0.22,0,0,0
0.02,-0.01,0.02,0.22,0.01,0.01,0
0.023,-0.01,0.02,0.22,0.01,0.01,0
0.024,0,0.02,0.25,0.01,0.01,0
0.024,0,0.02,0.25,0.01,0.02,0
0.027,0,0.02,0.25,0.01,0.02,0
0.028,0,0.02,0.25,0.01,0.03,0
0.03,0,0.02,0.25,0.01,0.03,0
0.033,0,0.02,0.25,0.01,0.03,0
0.033,0,0.02,0.25,0.01,0.03,0
0.034,0,0.02,0.25,0.01,0.03,0
0.036,0,0.02,0.25,0.02,0.03,0
0.038,0,0.02,0.25,0.02,0.03,0
0.04,0,0.02,0.25,0.01,0.03,0
0.055,0,0.02,0.25,0.02,0.03,0
0.055,0,0.02,0.25,0.01,0.02,0
0.055,0,0.02,0.25,0.01,0.02,0
0.055,0,0.02,0.25,0.01,0.02,0
0.056,0,0.02,0.25,0.01,0.02,0
0.056,0,0.02,0.25,0.01,0.02,0
0.056,0,0.02,0.25,0,0.01,0
0.056,0,0.01,0.21,0,0.01,0
0.056,0,0.01,0.21,0,0.01,0
0.056,0,0.01,0.21,0,0.01,0
0.058,0,0.01,0.21,0,0.01,0
0.067,0,0.01,0.21,0,0,0
0.067,0,0.01,0.21,0,0,0
0.068,0,0.01,0.21,0,0,0
0.068,0,0.01,0.21,0,0,0
0.068,0,0.01,0.21,0,-0.01,0
0.069,0,0.01,0.21,-0.01,-0.01,0
0.07,0,0.01,0.21,-0.01,-0.02,0
0.073,0,0.01,0.21,-0.01,-0.02,0
0.073,0,0,0.21,-0.01,-0.02,0
0.074,0,0,0.21,-0.01,-0.02,0
0.077,0,0,0.21,-0.01,-0.02,0
0.078,0,0,0.21,-0.01,-0.02,0
0.081,0,0,0.21,-0.01,-0.02,0
0.095,0,0,0.21,-0.01,-0.02,0
0.096,0,0,0.21,-0.01,-0.01,0
0.096,0,0,0.21,-0.01,-0.01,0
0.096,0,0,0.21,-0.01,-0.01,0
0.096,0,0,0.21,-0.01,-0.01,0
0.096,0,0,0.21,-0.01,-0.01,0
0.096,0,0,0.21,-0.01,-0.01,0
0.097,0,0.01,0.22,-0.01,-0.01,0
0.097,0,0.01,0.22,-0.01,-0.01,0
0.097,0,0.01,0.22,-0.01,-0.01,0
0.098,0,0.01,0.22,0,-0.01,0
0.1,0,0.01,0.22,0,0,0
0.103,0,0.01,0.22,0,0,0
0.104,0,0.01,0.23,0,0,0
0.104,0,0.01,0.23,0,0,0
0.106,0,0.01,0.23,0,0,0
0.108,0,0.01,0.23,0,0.01,0
0.11,0,0.01,0.23,0,0.01,0
0.113,0,0.01,0.23,0,0.01,0
0.114,0,0.01,0.23,0,0.01,0
0.114,0,0.01,0.23,0,0.01,0
0.116,0,0.01,0.23,0.01,0.01,0
0.118,0,0.01,0.23,0.01,0.01,0
0.12,0,0.01,0.23,0,0.01,0
0.136,0,0.01,0.23,0.01,0.01,0
0.136,0,0.01,0.23,0.01,0.01,0
0.136,0,0.01,0.23,0,0.01,0
0.136,0,0.01,0.23,0,0.01,0
0.137,0,0.01,0.23,0,0.01,0
0.137,0,0.01,0.23,0,0.01,0
0.137,0,0.01,0.23,0,0.01,0
0.137,-0.01,0.01,0.23,0,0.01,0
0.137,-0.01,0.01,0.23,0,0.01,0
0.138,-0.01,0.01,0.23,0.01,0.01,0
0.138,-0.01,0.01,0.23,0,0.01,0
0.14,-0.01,0.01,0.23,0,0,0
0.146,-0.01,0.01,0.23,0,0,0
0.147,0,0.01,0.23,0,0,0
0.147,0,0.01,0.23,0,0,0
0.147,0,0.01,0.23,0,0,0
0.149,0,0.01,0.23,0,0,0
0.151,0,0.01,0.23,0,0,0
0.153,0,0.01,0.23,0,0,0
0.154,0,0.01,0.23,0,0,0
0.154,0,0.01,0.23,0,-0.01,0
0.156,0,0.01,0.23,0,-0.01,0
0.158,0,0.01,0.23,0,-0.01,0
0.16,0,0.01,0.23,0,-0.01,0
0.177,0,0.01,0.23,-0.01,-0.01,0
0.177,0,0.01,0.23,0,-0.01,0
0.177,0,0.01,0.23,0,-0.01,0
0.177,0,0.01,0.23,0,-0.01,0
0.178,0,0.01,0.23,0,-0.01,0
0.178,0,0.01,0.23,0,-0.01,0
0.178,0,0.01,0.23,0,0,0
0.178,0,0.01,0.23,0,0,0
0.181,-0.01,0.01,0.23,0,0,0
0.181,-0.01,0.01,0.23,0,0,0
0.181,-0.01,0.01,0.23,0,0,0
0.181,-0.01,0.01,0.23,0,0,0
0.184,-0.01,0.01,0.23,0,0,0
0.184,-0.01,0.01,0.23,0,0,0
0.185,-0.01,0.01,0.23,0,0,0
0.186,-0.01,0.01,0.23,0,0,0
0.188,-0.01,0.01,0.23,0,0,0
0.19,-0.01,0.01,0.23,0,0,0
0.194,-0.01,0.01,0.23,0,0,0
0.194,-0.01,0.01,0.23,0,0,0
0.194,-0.01,0.01,0.23,0,0.01,0
0.196,-0.01,0.01,0.23,0,0.01,0
0.198,-0.01,0.01,0.23,0,0,0
0.202,-0.01,0.01,0.23,0,0.01,0
0.215,-0.01,0.01,0.23,0,0,0
0.216,-0.01,0.01,0.23,0,0.01,0
0.216,-0.01,0.01,0.23,0,0.01,0
0.216,-0.01,0.01,0.23,0,0.01,0
0.216,-0.01,0.01,0.23,0,0,0
0.217,-0.01,0.01,0.23,0,0,0
0.217,-0.01,0.01,0.23,0,0,0
0.217,-0.01,0.02,0.23,0,0,0
0.217,-0.01,0.02,0.23,0,0,0
0.217,-0.01,0.02,0.23,0,0.01,0
0.218,-0.01,0.02,0.23,0,0,0
0.22,-0.01,0.02,0.23,0,0,0
0.224,-0.01,0.02,0.23,0,0,0
0.224,0,0.02,0.22,0,0,0
0.224,0,0.02,0.22,0,0,0
0.227,0,0.02,0.22,0,0,0
0.229,0,0.02,0.22,0,0,0
0.23,0,0.02,0.22,0,0,0
0.233,0,0.02,0.22,0,0,0
0.233,0,0.01,0.22,0,0,0
0.234,0,0.01,0.22,0,0,0
0.236,0,0.01,0.22,0,0,0
0.238,0,0.01,0.22,0,0,0
0.24,0,0.01,0.22,0,0,0
0.256,0,0.01,0.22,0,-0.01,0
0.256,0,0.01,0.22,0,0,0
0.257,0,0.01,0.22,0,0,0
0.257,0,0.01,0.22,0,0,0
0.257,0,0.01,0.22,0,0,0
0.257,0,0.01,0.22,0,0,0
0.257,0,0.01,0.22,0,0,0
0.257,0,0,0.23,0,0,0
0.258,0,0,0.23,0,0,0
0.258,0,0,0.23,0,0,0
0.258,0,0,0.23,0,0,0
0.26,0,0,0.23,0,0,0
0.264,0,0,0.23,0,0,0
0.264,0,0,0.23,0,0,0
0.264,0,0,0.23,0,0,0
0.266,0,0,0.23,0,0,0
0.268,0,0,0.23,0,0,0
0.27,0,0,0.23,0,0,0
0.273,0,0,0.23,0,0,0
0.273,0,0,0.23,0,0,0
0.274,0,0,0.23,0,0.01,0
0.277,0,0,0.23,0,0,0
0.278,0,0,0.23,0,0,0
0.281,0,0,0.23,0,0,0
0.295,0,0,0.23,0,0.01,0
0.295,0,0,0.23,0.01,0,0
0.296,0,0,0.23,0.01,0,0
0.296,0,0,0.23,0.01,0,0
0.296,0,0,0.23,0.01,0,0
0.296,0,0,0.23,0,0,0
0.296,0,0,0.23,0,0,0
0.296,-0.01,0.01,0.23,0,0,0
0.297,-0.01,0.01,0.23,0,0,0
0.297,-0.01,0.01,0.23,0,0,0
0.298,-0.01,0.01,0.23,0,0,0
0.3,-0.01,0.01,0.23,0,0,0
0.304,-0.01,0.01,0.23,0,0,0
0.304,-0.01,0.01,0.23,0,0,0
0.305,-0.01,0.01,0.23,0,0,0
0.306,-0.01,0.01,0.23,0,0,0
0.308,-0.01,0.01,0.23,0,0,0
0.31,-0.01,0.01,0.23,0,0,0
0.313,-0.01,0.01,0.23,0,0,0
0.313,-0.01,0.01,0.23,0,0,0
0.314,-0.01,0.01,0.23,0,0,0
0.316,-0.01,0.01,0.23,0,0,0
0.318,-0.01,0.01,0.23,0,0,0
0.32,-0.01,0.01,0.23,0,-0.01,0
0.336,-0.01,0.01,0.23,0,0,0
0.336,-0.01,0.01,0.23,0,0,0
0.337,-0.01,0.01,0.23,0,0,0
0.337,-0.01,0.01,0.23,0,0,0
0.337,-0.01,0.01,0.23,0,0,0
0.337,-0.01,0.01,0.23,0,0,0
0.337,-0.01,0.01,0.23,0,0,0
0.337,-0.01,0.01,0.23,0,0,0
0.338,-0.01,0,0.23,0,0,0
0.338,-0.01,0,0.23,0,0,0
0.338,-0.01,0,0.23,0,0,0
0.338,-0.01,0,0.23,0,0,0
0.341,-0.01,0,0.23,0,0,0
0.351,-0.01,0,0.23,0,0,0
0.351,0,0,0.23,0,0,0
0.351,0,0,0.23,0,0,0
0.351,0,0,0.23,0,0,0
0.352,0,0,0.23,0,0,0
0.352,0,0,0.23,0,0,0
0.353,0,0,0.23,0,0,0
0.354,-0.01,0,0.23,0,0,0
0.354,-0.01,0,0.23,0,0,0
0.356,-0.01,0,0.23,0,0,0
0.358,-0.01,0,0.23,0,0,0
0.36,-0.01,0,0.23,0,0,0
0.376,-0.01,0,0.23,0,0,0
0.377,-0.01,0,0.23,0,0.01,0
0.377,-0.01,0,0.23,0,0,0
0.377,-0.01,0,0.23,0,0,0
0.377,-0.01,0,0.23,0,0,0
0.377,-0.01,0,0.23,0,0,0
0.378,-0.01,0,0.23,0,0,0
0.378,-0.01,0,0.23,0,0,0
0.378,0,0,0.22,0,0,0
0.378,0,0,0.22,0,0,0
0.378,0,0,0.22,0,0,0
0.379,0,0,0.22,0,0,0
0.38,0,0,0.22,0,0,0
0.384,0,0,0.22,0,0,0
0.384,0.01,0.01,0.23,0,0,0
0.384,0.01,0.01,0.23,0,0,0
0.386,0.01,0.01,0.23,0,0,0
0.388,0.01,0.01,0.23,0,0.01,0
0.39,0.01,0.01,0.23,0,0,0
0.394,0.01,0.01,0.23,0,0,0
0.394,0,0.01,0.22,0,0,0
0.394,0,0.01,0.22,0,0,0
0.396,0,0.01,0.22,0,0,0
0.398,0,0.01,0.22,0,0,0
0.401,0,0.01,0.22,0,0,0
0.416,0,0.01,0.22,0,0,0
0.416,0,0.01,0.22,0,0,0
0.416,0,0.01,0.22,0,0,0
0.416,0,0.01,0.22,0,0,0
0.417,0,0.01,0.22,0,0,0
0.417,0,0.01,0.22,0,0,0
0.417,0,0.01,0.22,0,0,0
0.417,0,0.01,0.23,0,0,0
0.417,0,0.01,0.23,0,0,0
0.418,0,0.01,0.23,0,0,0
0.418,0,0.01,0.23,0,0,0
0.418,0,0.01,0.23,0,0,0
0.42,0,0.01,0.23,0,0,0
0.424,0,0.01,0.23,0,0,0
0.424,0,0.01,0.23,0,0,0
0.424,0,0.01,0.23,0,0,0
0.426,0,0.01,0.23,0,0,0
0.429,0,0.01,0.23,0,0,0
0.431,0,0.01,0.23,0,0,0
0.433,0,0.01,0.23,0,0,0
0.433,0,0,0.23,0,0,0
0.434,0,0,0.23,0,0,0
0.436,0,0,0.23,0,0,0
0.438,0,0,0.23,0,0,0
0.44,0,0,0.23,0,0,0
0.456,0,0,0.23,0,0,0
0.456,0,0,0.23,0,0,0
0.456,0,0,0.23,0,0,0
0.457,0,0,0.23,0,0,0
0.457,0,0,0.23,0,0,0
0.457,0,0,0.23,0,0,0
0.457,0,0,0.23,0,0,0
0.457,0,0.01,0.23,0,0,0
0.458,0,0.01,0.23,0,0,0
0.458,0,0.01,0.23,0,0,0
0.458,0,0.01,0.23,0,0,0
0.458,0,0.01,0.23,0,0,0
0.46,0,0.01,0.23,0,0,0
0.463,0,0.01,0.23,0,0,0
0.464,0,0.01,0.24,0,0,0
0.464,0,0.01,0.24,0,0,0
0.466,0,0.01,0.24,0,0,0
0.468,0,0.01,0.24,0,0,0
0.47,0,0.01,0.24,0,0,0
0.473,0,0.01,0.24,0,0,0
0.474,0.01,0.01,0.24,0,0,0
0.474,0.01,0.01,0.24,0,0,0
0.477,0.01,0.01,0.24,0,0,0
0.478,0.01,0.01,0.24,0,0,0
0.48,0.01,0.01,0.24,0,0,0
0.496,0.01,0.01,0.24,0,0,0
0.496,0.01,0.01,0.24,0,0,0
0.496,0.01,0.01,0.24,0,0,0
0.497,0.01,0.01,0.24,0,0,0
0.497,0.01,0.01,0.24,0,0,0
0.497,0.01,0.01,0.24,0,0,0
0.497,0.01,0.01,0.24,0,0,0
0.497,0,0.01,0.23,0,0,0
0.498,0,0.01,0.23,0,0,0
0.498,0,0.01,0.23,0,0,0
0.499,0,0.01,0.23,0,0,0
0.5,0,0.01,0.23,0,0,0
0.504,0,0.01,0.23,0,0,0
0.504,0,0,0.23,0,0,0
0.505,0,0,0.23,0,0,0
0.506,0,0,0.23,0,0,0
0.508,0,0,0.23,0,0,0
0.51,0,0,0.23,0,0,0
0.513,0,0,0.23,0,0,0
0.514,0,0,0.23,0,0,0
0.514,0,0,0.23,0,0,0
0.516,0,0,0.23,0,0,0
0.518,0,0,0.23,0,0,0
0.52,0,0,0.23,0,0,0
0.535,0,0,0.23,0,0,0
0.535,0,0,0.23,0,0,0
0.535,0,0,0.23,0,0,0
0.535,0,0,0.23,0,0,0
0.536,0,0,0.23,0,0.01,0
0.536,0,0,0.23,0,0.01,0
0.536,0,0,0.23,0,0,0
0.536,0,0,0.23,0,0,0
0.536,0,0,0.23,0,0,0
0.537,0,0,0.23,0,0,0
0.538,0,0,0.23,0,0,0
0.54,0,0,0.23,0,0,0
0.547,0,0,0.23,0,0,0
0.547,0,0.01,0.23,0,0,0
0.547,0,0.01,0.23,0,0,0
0.548,0,0.01,0.23,0,0,0
0.548,0,0.01,0.23,0,0,0
0.551,0,0.01,0.23,0,0,0
0.553,0,0.01,0.23,0,0,0
0.554,0,0.01,0.23,0,0,0
0.555,0,0.01,0.23,0,0,0
0.556,0,0.01,0.23,0,0,0
0.558,0,0.01,0.23,0,0,0
0.56,0,0.01,0.23,0,0,0
0.576,0,0.01,0.23,0,0,0
0.576,0,0.01,0.23,0,0,0
0.576,0,0.01,0.23,0,0,0
0.576,0,0.01,0.23,0,0,0
0.576,0,0.01,0.23,0,0,0
0.577,0,0.01,0.23,0,0,0
0.577,0,0.01,0.23,0,0,0
0.577,-0.01,0.01,0.22,0,0,0
0.577,-0.01,0.01,0.22,0,0,0
0.577,-0.01,0.01,0.22,0,0,0
0.578,-0.01,0.01,0.22,0,0,0
0.58,-0.01,0.01,0.22,0,0,0
0.583,-0.01,0.01,0.22,0,0,0
0.584,0,0.01,0.22,0,0,0
0.584,0,0.01,0.22,0,-0.01,0
0.586,0,0.01,0.22,0,0,0
0.589,0,0.01,0.22,0,0,0
0.591,0,0.01,0.22,0,0,0
0.595,0,0.01,0.22,-0.01,0,0
0.598,0,0.01,0.22,0,0,0
0.598,0,0.01,0.22,0,0,0
0.598,0,0.01,0.22,0,0,0
0.599,0,0.01,0.22,0,0,0
0.6,0,0.01,0.22,0,0,0
0.619,0,0.01,0.22,0,0,0
0.619,0,0.01,0.22,0,0,0
0.619,0,0.01,0.22,0,0,0
0.619,0,0.01,0.22,0,0,0
0.619,0,0.01,0.22,0,0,0
0.62,0,0.01,0.22,0,0,0
0.62,0,0.01,0.22,0,0,0
0.62,0,0.01,0.22,0,0,0
0.62,0,0.01,0.22,0,0,0
0.62,0.01,0,0.22,0,0,0
0.62,0.01,0,0.22,0,0,0
0.62,0.01,0,0.22,0,0,0
0.621,0.01,0,0.22,0,0,0
0.624,0.01,0,0.22,0,0,0
0.624,0.01,0,0.22,0,0,0
0.624,0.01,0,0.22,0,0,0
0.626,0.01,0,0.22,0,0,0
0.63,0.01,0,0.22,0,0,0
0.631,0.01,0,0.22,0,0,0
0.634,0.01,0,0.22,0,0,0
0.634,0,0,0.22,0,0,0
0.634,0,0,0.22,0,0,0
0.636,0,0,0.22,0,0,0
0.639,0,0,0.22,0,0,0
0.64,0,0,0.22,0,0.01,0
0.655,0,0,0.22,0.01,0.01,0
0.656,0,0,0.22,0,0,0
0.656,0,0,0.22,0,0,0
0.656,0,0,0.22,0,0,0
0.656,0,0,0.22,0,0,0
0.656,0,0,0.22,0,0,0
0.657,0,0,0.22,0,0,0
0.657,0,0,0.23,0,0,0
0.657,0,0,0.23,0,0,0
0.657,0,0,0.23,0,0,0
0.657,0,0,0.23,0,0,0
0.658,0,0,0.23,0,0,0
0.661,0,0,0.23,0,0,0
0.663,0,0,0.23,0,0,0
0.664,0,0.01,0.23,0,0,0
0.667,0,0.01,0.23,0,0,0
0.668,0,0.01,0.23,0,0,0
0.668,0,0.01,0.23,0,0,0
0.67,0,0.01,0.23,-0.01,0,0
0.673,0,0.01,0.23,0,0,0
0.674,0,0.01,0.23,0,0,0
0.674,0,0.01,0.23,0,0,0
0.676,0,0.01,0.23,0,0,0
0.678,0,0.01,0.23,0,-0.01,0
0.68,0,0.01,0.23,0,0,0
0.695,0,0.01,0.23,0,0,0
0.696,0,0.01,0.23,0,0,0
0.696,0,0.01,0.23,0,0,0
0.696,0,0.01,0.23,0,0,0
0.696,0,0.01,0.23,0,0,0
0.696,0,0.01,0.23,0,0,0
0.697,0,0.01,0.23,0,0,0
0.697,0,-0.01,0.23,0,0,0
0.697,0,0,0.23,0,0,0
0.697,0,0,0.23,0,0,0
0.697,0,0,0.23,0,0,0
0.699,0,0,0.23,0,0,0
0.7,0,0,0.23,0,0,0
0.705,0,0,0.23,0,0,0
0.705,0.01,0,0.23,0,0,0
0.706,0.01,0,0.23,0,0,0
0.706,0.01,0,0.23,0,0,0
0.709,0.01,0,0.23,0,0,0
0.711,0.01,0,0.23,0,0,0
0.713,0.01,0,0.23,0,0,0
0.714,0,0,0.23,0,0,0
0.714,0,0,0.23,0,0,0
0.716,0,0,0.23,0,0,0
0.719,0,0,0.23,0,0,0
0.72,0,0,0.23,0,0,0
0.737,0,0,0.23,0,0,0
0.738,0,0,0.23,0,0.01,0
0.738,0,0,0.23,0,0,0
0.738,0,0,0.23,0,0,0
0.739,0,0,0.23,0,0,0
0.739,0,0,0.23,0,0,0
0.739,0,0,0.23,0,0,0
0.74,0,0,0.23,0,0,0
0.74,0,0.01,0.23,0,0,0
0.74,0,0.01,0.23,0,0,0
0.74,0,0.01,0.23,0,0,0
0.741,0,0.01,0.23,0,0,0
0.741,0,0.01,0.23,0,0,0
0.75,0,0.01,0.23,0,0,0
0.751,0,0.01,0.23,0,0,0
0.752,0,0.01,0.23,0,0,0
0.752,0,0.01,0.23,0,0,0
0.752,0,0.01,0.23,0,0,0
0.752,0,0.01,0.23,0,0,0
0.756,0,0.01,0.23,0,0,0
0.756,0,0.01,0.23,0,0,0
0.757,0,0.01,0.23,0,0,0
0.757,0,0.01,0.23,0,0,0
0.759,0,0.01,0.23,0,0,0
0.76,0,0.01,0.23,0,0,0
0.775,0,0.01,0.23,0,0,0
0.776,0,0.01,0.23,0,0,0
0.776,0,0.01,0.23,0,0,0
0.776,0,0.01,0.23,0,0,0
0.776,0,0.01,0.23,0,0,0
0.777,0,0.01,0.23,0,0,0
0.777,0,0.01,0.23,0,0,0
0.777,0.01,0,0.23,0,0,0
0.777,0.01,0,0.23,0,0,0
0.778,0.01,0,0.23,0,0,0
0.78,0.01,0,0.23,0,0,0
0.78,0.01,0,0.23,0,0,0
0.785,0.01,0,0.23,0,0,0
0.785,0.01,0,0.23,0,0,0
0.785,0.01,0,0.22,0,0,0
0.786,0.01,0,0.22,0,0,0
0.789,0.01,0,0.22,0,0,0
0.794,0.01,0,0.22,0,0,0
0.794,0.01,0,0.22,0,0,0
0.794,0.01,0,0.22,0,0,0
0.794,0.01,0,0.22,0,0,0
0.798,0.01,0,0.22,0,0,0
0.798,0.01,0,0.22,0,0,0
0.801,0.01,0,0.22,0,0,0
0.816,0.01,0,0.22,0,0,0
0.817,0.01,0,0.22,0,0,0
0.817,0.01,0,0.22,0,0,0
0.818,0.01,0,0.22,0,0,0
0.818,0.01,0,0.22,0,0.01,0
0.818,0.01,0,0.22,0,0.01,0
0.818,0.01,0,0.22,0,0.01,0
0.818,0,0.01,0.23,0,0.01,0
0.819,0,0,0.23,0,0.01,0
0.819,0,0,0.23,0,0.01,0
0.819,0,0,0.23,0,0,0
0.82,0,0,0.23,0,0.01,0
0.821,0,0,0.23,0,0,0
0.824,0,0,0.23,0,0,0
0.824,0,0.01,0.23,0,0,0
0.824,0,0.01,0.23,0,0.01,0
0.828,0,0.01,0.23,0,0,0
0.829,0,0.01,0.23,0,0,0
0.837,0,0.01,0.23,0,0,0
0.837,0,0.01,0.23,0,0,0
0.837,0,0.01,0.23,0,0,0
0.837,0,0.01,0.23,0,0,0
0.838,0,0.01,0.22,0,0,0
0.839,0,0.01,0.22,0,0,0
0.841,0,0.01,0.22,0,0,0
0.857,0,0.01,0.22,0,0,0
0.857,0,0.01,0.22,0,0,0
0.857,0,0.01,0.22,0,0,0
0.858,0,0.01,0.22,0,0,0
0.858,0,0.01,0.22,0,0,0
0.858,0,0.01,0.22,0,0,0
0.858,0,0.01,0.22,0,0,0
0.858,0,0.01,0.22,0,0,0
0.859,0,0,0.23,0,0,0
0.859,0,0,0.23,0,0,0
0.86,0,0,0.23,0,0,0
0.86,0,0,0.23,0,0,0
0.861,0,0,0.23,0,0,0
0.866,0,0,0.23,0,0,0
0.866,0,0,0.23,0,0,0
0.866,0.01,0,0.23,0,0,0
0.866,0.01,0,0.23,0,0,0
0.87,0.01,0,0.23,-0.01,0,0
0.871,0.01,0,0.23,0,-0.01,0
0.874,0.01,0,0.23,0,0,0
0.874,0,0,0.22,0,0,0
0.874,0,0,0.22,0,0,0
0.876,0,0,0.22,0,0,0
0.879,0,0,0.22,0,0,0
0.881,0,0,0.22,0,0,0
0.899,0,0,0.22,0,0,0
0.899,0,0,0.22,0,0,0
0.9,0,0,0.22,0,0,0
0.9,0,0,0.22,0,0,0
0.9,0,0,0.22,0,0,0
0.9,0,0,0.22,0,0,0
0.9,0,0,0.22,0,0,0
0.901,0.01,0,0.23,0,0,0
0.901,0.01,0,0.23,0,0,0
0.901,0.01,0,0.23,0,0,0
0.901,0.01,0,0.23,0,0,0
0.901,0.01,0,0.23,0,0,0
0.905,0.01,0,0.23,0,0,0
0.905,0.01,0,0.23,0,0,0
0.905,0,0,0.23,0,0,0
0.906,0,0,0.23,0,0.01,0
0.908,0,0,0.23,0,0,0
0.91,0,0,0.23,0,0,0
0.915,0,0,0.23,0,0.01,0
0.916,0,0,0.23,0,0,0
0.916,0,0.01,0.23,0,0,0
0.917,0,0.01,0.23,0,0,0
0.919,0,0.01,0.23,0,0,0
0.921,0,0.01,0.23,0,0.01,0
0.936,0,0.01,0.23,0,0,0
0.937,0,0.01,0.23,0,0,0
0.937,0,0.01,0.23,0,0,0
0.937,0,0.01,0.23,0,0,0
0.938,0,0.01,0.23,0,0,0
0.938,0,0.01,0.23,0,0,0
0.938,0,0.01,0.23,0,0,0
0.938,0,0.02,0.23,0,0,0
0.939,0,0.01,0.23,0,0,0
0.939,0,0.01,0.23,0,0,0
0.939,0,0.01,0.23,0,0,0
0.939,0,0.01,0.23,0,0,0
0.94,0,0.01,0.23,0,0,0
0.944,0,0.01,0.23,0,0,0
0.944,0,0.01,0.23,0,0,0
0.945,0,0.01,0.23,-0.01,0,0
0.952,0,0.01,0.23,0,0,0
0.952,0,0.01,0.23,0,0,0
0.953,0,0.01,0.23,0,0,0
0.958,0,0.01,0.23,0,0,0
0.958,0,0.01,0.23,0,0,0
0.958,0,0.01,0.23,0,0,0
0.958,0,0.01,0.23,0,0,0
0.959,0,0.01,0.23,0,0,0
0.961,0,0.01,0.23,0,0,0
0.976,0,0.01,0.23,0,-0.01,0
0.977,0,0.01,0.23,0,0,0
0.977,0,0.01,0.23,0,0,0
0.977,0,0.01,0.23,0,0,0
0.977,0,0.01,0.23,0,0,0
0.978,0,0.01,0.23,0,0,0
0.978,0,0.01,0.23,0,0,0
0.978,0,0,0.23,0,0,0
0.978,0,0,0.23,0,0,0
0.978,0,0,0.23,0,0,0
0.979,0,0,0.23,0,0,0
0.979,0,0,0.23,0,0,0
0.984,0,0,0.23,0,0,0
0.985,0,0,0.23,0,0,0
0.985,0,0,0.23,0,0,0
0.985,0,0,0.23,0,0,0
0.986,0,0,0.23,0,0,0
0.99,0,0,0.23,0,0,0
0.99,0,0,0.23,0,0,0
0.994,0,0,0.23,0,0,0
0.994,0,0,0.23,0,0,0
0.995,0,0,0.23,0,0,0
0.998,0,0,0.23,0,0,0
1,0,0,0.23,0,0,0
1,0,0,0.23,0,0,0
1.015,0,0,0.23,0,0,0
1.016,0,0,0.23,0,0,0
1.016,0,0,0.23,0,0,0
1.017,0,0,0.23,0,0,0
1.017,0,0,0.23,0,0,0
1.017,0,0,0.23,0,0,0
1.017,0,0,0.23,0,0,0
1.017,0,0.01,0.23,0,0,0
1.017,0,0.01,0.23,0,0,0
1.017,0,0.01,0.23,0,0,0
1.018,0,0.01,0.23,0,0,0
1.021,0,0.01,0.23,0,0,0
1.024,0,0.01,0.23,0,0,0
1.024,0,0.01,0.23,0,0,0
1.024,0,0.01,0.23,0,0,0
1.026,0,0.01,0.23,0,0,0
1.028,0,0.01,0.23,0,0,0
1.03,0,0.01,0.23,0,0,0
1.034,0,0.01,0.23,0,0,0
1.034,0,0.01,0.23,0,0,0
1.035,0,0.01,0.23,0,0,0
1.037,0,0.01,0.23,0,0,0
1.038,0,0.01,0.23,0,0,0
1.04,0,0.01,0.23,-0.01,0,0
1.058,0,0.01,0.23,0,0,0
1.058,0,0.01,0.23,0,0,0
1.059,0,0.01,0.23,0,0,0
1.059,0,0.01,0.23,0,0,0
1.059,0,0.01,0.23,0,0,0
1.059,0,0.01,0.23,0,0,0
1.059,0,0.01,0.23,0,0,0
1.059,0,0.01,0.23,0,0,0
1.06,0.01,-0.01,0.22,0,0,0
1.06,0.01,-0.01,0.22,0,0,0
1.06,0.01,-0.01,0.22,0,0,0
1.06,0.01,-0.01,0.22,0,0,0
1.062,0.01,-0.01,0.22,0,0,0
1.064,0.01,-0.01,0.22,0,0,0
1.065,0,-0.01,0.22,0,0,0
1.065,0,-0.01,0.22,0,0,0
1.068,0,-0.01,0.22,0,0,0
1.068,0,-0.01,0.22,0,0,0
1.07,0,-0.01,0.22,0,0,0
1.074,0,-0.01,0.22,0,0,0
1.074,0,-0.01,0.22,0,0,0
1.074,0,-0.01,0.22,0,0,0
1.076,0,-0.01,0.22,0,0,0
1.082,0,-0.01,0.22,0,0,0
1.083,0,-0.01,0.22,0,0,0
1.097,0,-0.01,0.22,0,0,0
1.098,0,-0.01,0.22,0,0,0
1.098,0,-0.01,0.22,0,0.01,0
1.098,0,-0.01,0.22,0,0,0
1.099,0,-0.01,0.22,0,0,0
1.099,0,-0.01,0.22,0,0,0
1.099,0,-0.01,0.22,0,0,0
1.099,0,-0.01,0.22,0,0,0
1.1,-0.01,0,0.24,0,0,0
1.1,-0.01,0,0.24,0,0,0
1.101,-0.01,0,0.24,0,0,0
1.101,-0.01,0,0.24,0,0,0
1.104,-0.01,0,0.24,0,0,0
1.105,0,0,0.24,0,0,0
1.105,0,0,0.24,0,0,0
1.106,0,0,0.24,0,0,0
1.109,0,0,0.24,0,0,0
1.111,0,0,0.24,0,0,0
1.114,0,0,0.24,0,0,0
1.115,-0.01,0.01,0.23,0,0,0
1.116,-0.01,0.01,0.23,0,0,0
1.116,-0.01,0.01,0.23,0,0,0
1.118,-0.01,0.01,0.23,0,0,0
1.121,-0.01,0.01,0.23,0,0,0
1.136,-0.01,0.01,0.23,0,0,0
1.136,-0.01,0.01,0.23,0,0,0
1.137,-0.01,0.01,0.23,0,0,0
1.137,-0.01,0.01,0.23,0,0,0
1.137,-0.01,0.01,0.23,0,0,0
1.137,-0.01,0.01,0.23,0,0,0
1.138,-0.01,0.01,0.23,0,0,0
1.138,0,0,0.23,0,0,0
1.138,0,0,0.23,0,0,0
1.139,0,0,0.23,0,0,0
1.139,0,0,0.23,0,0,0
1.14,0,0,0.23,0,0,0
1.151,0,0,0.23,0,0,0
1.151,0,0,0.23,0,0,0
1.152,0,-0.01,0.22,0,0,0
1.152,0,-0.01,0.22,0,0,0
1.152,0,-0.01,0.22,0,0,0
1.153,0,-0.01,0.22,0,0,0
1.153,0,-0.01,0.22,0,0,0
1.156,0,-0.01,0.22,0,0,0
1.157,0,-0.01,0.22,0,0,0
1.157,0,-0.01,0.22,0,0,0
1.159,0,-0.01,0.22,0,0,0
1.162,0,-0.01,0.22,0,0,0
1.176,0,-0.01,0.22,0,0,0
1.176,0,-0.01,0.22,0,0,0
1.177,0,-0.01,0.22,0,0,0
1.177,0,-0.01,0.22,0,0,0
1.177,0,-0.01,0.22,0,0,0
1.177,0,-0.01,0.22,0,0,0
1.178,0,-0.01,0.22,0,0,0
1.178,0,-0.01,0.23,0,0,0
1.178,0,-0.01,0.23,0,0,0
1.178,0,-0.01,0.23,0,0,0
1.179,0,-0.01,0.23,0,0,0
1.18,0,-0.01,0.23,0,0,0
1.182,0,-0.01,0.23,0,0,0
1.184,0,-0.01,0.23,0,0,0
1.184,0,-0.01,0.23,0,0,0
1.185,0,-0.01,0.23,0,0,0
1.186,0,-0.01,0.23,0,0,0
1.188,0,-0.01,0.23,0,0,0
1.191,0,-0.01,0.23,0,0,0
1.198,0,-0.01,0.23,0,0,0
1.199,0,-0.01,0.23,0,0,0
1.199,0,-0.01,0.23,0,0,0
1.2,0.01,0,0.22,0,0,0
1.2,0.01,0,0.22,0,0,0
1.202,0.01,0,0.22,0,0,0
1.219,0.01,0,0.22,0,0,0
1.22,0.01,0,0.22,0,0,0
1.22,0.01,0,0.22,0,0,0
1.221,0.01,0,0.22,0,0,0
1.221,0.01,0,0.22,0,0,0
1.221,0.01,0,0.22,0,0,0
1.221,0.01,0,0.22,0,0,0
1.222,0.01,0,0.22,0,0,0
1.222,0.01,0,0.22,0,0,0
1.222,0.01,0,0.22,0,0,0
1.223,0.01,0,0.22,0,0,0
1.223,0.01,0,0.22,0,0,0
1.223,0.01,0,0.22,0,0,0
1.224,0.01,0,0.22,0,0,0
1.224,0.01,0,0.22,0,0,0
1.225,0.01,0,0.22,0,0,0
1.227,0.01,0,0.22,0,0,0
1.229,0.01,0,0.22,0,0,0
1.231,0.01,0,0.22,0,0,0
1.235,0.01,0,0.22,0,0,0
1.235,0.01,0,0.22,0,0,0
1.236,0.01,0,0.22,0,0,0
1.236,0.01,0,0.22,0,0,0
1.239,0.01,0,0.22,0,0,0
1.24,0.01,0,0.22,0,0,0
1.259,0.01,0,0.22,0,0,0
1.259,0.01,0,0.22,0,0,0
1.26,0.01,0,0.22,0,0,0
1.26,0.01,0,0.22,0,0,0
1.26,0.01,0,0.22,0,0,0
1.262,0.01,0,0.22,0,0,0
1.262,0.01,0,0.22,0,0,0
1.263,0.01,0,0.22,0,0,0
1.263,0.01,0,0.22,0,0,0
1.263,0.01,0,0.22,0,0,0
1.263,0.01,0,0.22,0,0,0
1.264,0.01,0,0.22,0,0,0
1.265,0.01,0,0.22,0,0.01,0
1.265,0.01,0,0.22,0,0,0
1.265,0.01,0,0.22,0,0,0
1.266,0.01,0,0.22,0,0,0
1.269,0.01,0,0.22,0,0,0
1.271,0.01,0,0.22,0,0,0
1.274,0.01,0,0.22,0,0,0
1.274,0.01,0,0.22,0,0,0
1.277,0.01,0,0.22,0,0,0
1.278,0.01,0,0.22,0.01,0,0
1.279,0.01,0,0.22,0,0.01,0
1.281,0.01,0,0.22,0,0,0
1.297,0.01,0,0.22,0,0,0
1.297,0.01,0,0.22,0,0,0
1.297,0.01,0,0.22,0,0,0
1.297,0.01,0,0.22,0,0,0
1.298,0.01,0,0.22,0,0,0
1.298,0.01,0,0.22,0,0,0
1.298,0.01,0,0.22,0,0,0
1.298,0,0.01,0.22,0,0,0
1.298,0,0.01,0.22,0,0,0
1.299,0,0.01,0.22,0,0,0
1.299,0,0.01,0.22,0,0,0
1.3,0,0.01,0.22,0,0,0
1.301,0,0.01,0.22,0,0,0
1.304,0,0.01,0.22,0,0,0
1.304,0,0.01,0.22,0,0,0
1.305,0,0.01,0.22,0,0,0
1.307,0,0.01,0.22,0,0,0
1.309,0,0.01,0.22,0,0,0
1.311,0,0.01,0.22,0,0,0
1.314,0,0.01,0.22,0,0,0
1.315,0,0.01,0.22,0,0,0
1.319,0,0.01,0.22,0,0,0
1.319,0,0.01,0.22,0,0,0
1.32,0,0.01,0.22,0,0,0
1.32,0,0.01,0.22,0,0,0
1.336,0,0.01,0.22,0,0,0
1.337,0,0.01,0.22,0,0,0
1.337,0,0.01,0.22,0,0,0
1.337,0,0.01,0.22,0,0,0
1.337,0,0.01,0.22,0,0,0
1.338,0,0.01,0.22,0,0,0
1.338,0,0.01,0.22,0,0,0
1.338,0,0,0.22,0,0,0
1.338,0,0,0.22,0,0,0
1.339,0,0,0.22,0,0,0
1.339,0,0,0.22,0,0,0
1.339,0,0,0.22,0,0,0
1.34,0,0,0.22,0,0,0
1.344,0,0,0.22,0,0,0
1.344,0,0,0.22,0,0,0
1.345,0,0,0.22,0,0,0
1.35,0,0,0.22,0,0,0
1.351,0,0,0.22,0,0,0
1.351,0,0,0.22,0,0,0
1.353,0,0,0.22,0,0,0
1.353,0,0,0.22,0,0,0
1.354,0,0,0.22,0,0,0
1.357,0,0,0.22,0,0,0
1.36,0,0,0.22,0,0,0
1.362,0,0,0.22,0,0,0
1.374,0,0,0.22,0,0,0
1.375,0,0,0.22,0,0,0
1.375,0,0,0.22,0,0,0
1.375,0,0,0.22,0,0,0
1.376,0,0,0.22,0,0,0
1.376,0,0,0.22,0,0,0
1.376,0,0,0.22,0,0,0
1.376,0,0,0.22,0,0,0
1.377,0,0,0.22,0,0,0
1.377,0,0,0.22,0,0,0
1.379,0,0,0.22,0,0,0
1.381,0,0,0.22,0,0,0
1.384,0,0,0.22,0,0,0
1.385,0,0,0.22,0,0,0
1.385,0,0.01,0.22,0,0,0
1.386,0,0.01,0.22,0,0,0
1.388,0,0.01,0.22,0,0,0
1.39,0,0.01,0.22,0,0,0
1.393,0,0.01,0.22,0,0,0
1.394,0,0.01,0.22,0,0,0
1.395,0,0.01,0.22,0,0,0
1.397,0,0.01,0.22,0,0,0
1.398,0,0.01,0.22,0,0,0
1.401,0,0.01,0.22,0,0,0
1.416,0,0.01,0.22,0,0,0
1.417,0,0.01,0.22,0,0,0
1.417,0,0.01,0.22,0,0,0
1.417,0,0.01,0.22,0,0,0
1.418,0,0.01,0.22,0,0,0
1.418,0,0.01,0.22,0,0,0
1.418,0,0.01,0.22,0,0,0
1.418,0,0,0.22,0,0,0
1.419,0,0,0.22,0,0,0
1.419,0,0,0.22,0,0,0
1.419,0,0,0.22,0,0,0
1.421,0,0,0.22,0,0,0
1.423,0,0,0.22,0,0,0
1.424,0,-0.01,0.22,0,0,0
1.425,0,-0.01,0.22,0,0,0
1.426,0,-0.01,0.22,0,0,0
1.43,0,-0.01,0.22,0,0,0
1.43,0,-0.01,0.22,0,0,0
1.434,0,-0.01,0.22,0,0,0
1.434,0.01,-0.01,0.22,0,0,0
1.436,0.01,-0.01,0.22,0,0,0
1.437,0.01,-0.01,0.22,0,0,0
1.439,0.01,-0.01,0.22,0,0,0
1.44,0.01,-0.01,0.22,0,0,0
1.458,0.01,-0.01,0.22,0,0,0
1.458,0.01,-0.01,0.22,0,0,0
1.459,0.01,-0.01,0.22,0,0,0
1.459,0.01,-0.01,0.22,0,0,0
1.459,0.01,-0.01,0.22,0,0,0
1.459,0.01,-0.01,0.22,0,0,0
1.459,0.01,-0.01,0.22,0,0,0
1.46,0,0,0.22,0,0,0
1.46,0,0,0.22,0,0,0
1.46,0,0,0.22,0,0,0
1.46,0,0,0.22,0,0,0
1.461,0,0,0.22,0,0,0
1.461,0,0,0.22,0,0,0
1.465,0,0,0.22,0,0,0
1.465,0,0,0.22,0,0,0
1.466,0.01,0,0.22,0,0,0
1.467,0.01,0,0.22,0,0,0
1.469,0.01,0,0.22,0,0,0
1.47,0.01,0,0.22,0,0,0
1.473,0.01,0,0.22,0.01,0,0
1.474,0.01,0.01,0.22,0.01,0,0
1.474,0.01,0.01,0.22,0,0,0
1.476,0.01,0.01,0.22,0,0,0
1.479,0.01,0.01,0.22,0,0,0
1.481,0.01,0.01,0.22,0,0,0
1.498,0.01,0.01,0.22,0,0,0
1.499,0.01,0.01,0.22,0,0,0
1.499,0.01,0.01,0.22,0,0,0
1.499,0.01,0.01,0.22,0,0,0
1.499,0.01,0.01,0.22,0,0,0
1.5,0.01,0.01,0.22,0,0,0
1.5,0.01,0.01,0.22,0,0,0
1.5,0.01,0.01,0.22,0,0,0
1.5,0,0.01,0.22,0,0,0
1.5,0,0.01,0.22,0,0,0
1.501,0,0.01,0.22,0,0,0
1.501,0,0.01,0.22,0,0,0
1.504,0,0.01,0.22,0,0,0
1.504,0,0.01,0.22,0,0,0
1.504,0,0.01,0.22,0,-0.01,0
1.507,0,0.01,0.22,-0.01,-0.02,0
1.509,0,0.01,0.22,-0.01,-0.03,0
1.51,0,0.01,0.22,-0.02,-0.04,0
1.514,0,0.01,0.22,-0.03,-0.07,0
1.515,-0.02,0.01,0.14,-0.03,-0.07,0
1.516,-0.02,0.01,0.14,-0.05,-0.11,0
1.516,-0.02,0.01,0.14,-0.08,-0.16,0
1.519,-0.02,0.01,0.14,-0.09,-0.18,0
1.52,-0.02,0.01,0.14,-0.11,-0.22,0
1.537,-0.02,0.01,0.14,-0.13,-0.26,0
1.537,-0.02,0.01,0.14,0.07,0.1,0
1.537,-0.02,0.01,0.14,0.07,0.1,0
1.538,-0.02,0.01,0.14,0.07,0.15,-0.01
1.538,-0.02,0.01,0.14,0.06,0.17,-0.01
1.538,-0.02,0.01,0.14,0.06,0.17,-0.01
1.538,-0.02,0.01,0.14,0.06,0.17,-0.01
1.539,0.28,-0.03,-0.01,0.06,0.17,-0.01
1.539,0.26,-0.02,0,0.06,0.17,-0.01
1.539,0.26,-0.02,0,0.05,0.15,-0.01
1.54,0.26,-0.02,0,0.06,0.1,0
1.54,0.26,-0.02,0,0.07,0.09,0
1.55,0.26,-0.02,0,0.05,0.08,0
1.551,0.26,-0.02,0,0.03,0.09,0
1.551,0.26,-0.02,0,0.03,0.09,0
1.551,0.25,-0.01,-0.1,0.03,0.09,0
1.559,0.25,-0.01,-0.1,0.03,0.08,0
1.559,0.25,-0.01,-0.1,0.04,0.07,0
1.56,0.25,-0.01,-0.1,0.04,0.08,0
1.56,0.25,-0.01,-0.1,0.04,0.08,0
1.56,0.25,-0.01,-0.1,0.04,0.09,0
1.56,0.22,-0.01,-0.02,0.04,0.09,0
1.56,0.22,-0.01,-0.02,0.05,0.11,0
1.561,0.22,-0.01,-0.02,0.06,0.12,0
1.576,0.22,-0.01,-0.02,0.06,0.13,0
1.576,0.22,-0.01,-0.02,0.11,0.22,0
1.577,0.22,-0.01,-0.02,0.11,0.23,0
1.577,0.22,-0.01,-0.02,0.11,0.24,0.01
1.577,0.22,-0.01,-0.02,0.11,0.24,0.01
1.577,0.22,-0.01,-0.02,0.11,0.24,0.01
1.577,0.22,-0.01,-0.02,0.11,0.24,0.01
1.577,0.17,-0.01,0.16,0.11,0.24,0.01
1.578,0.18,-0.01,0.16,0.11,0.24,0.01
1.578,0.19,-0.02,0.16,0.11,0.24,0.01
1.578,0.19,-0.02,0.16,0.12,0.25,0.01
1.579,0.19,-0.02,0.16,0.13,0.26,0.01
1.581,0.19,-0.02,0.16,0.13,0.26,0.02
1.584,0.19,-0.02,0.16,0.13,0.26,0.05
1.584,0.1,-0.03,0.22,0.13,0.26,0.05
1.584,0.1,-0.03,0.22,0.13,0.26,0.07
1.586,0.1,-0.03,0.22,0.12,0.26,0.11
1.588,0.1,-0.03,0.22,0.12,0.25,0.17
1.59,0.1,-0.03,0.22,0.12,0.25,0.21
1.593,0.1,-0.03,0.22,0.13,0.25,0.28
1.593,0.01,-0.09,0.23,0.13,0.25,0.28
1.595,0.01,-0.09,0.23,0.14,0.23,0.34
1.596,0.01,-0.09,0.23,0.12,0.23,0.36
1.602,0.01,-0.09,0.23,0.12,0.23,0.37
1.602,0.01,-0.09,0.23,0.12,0.22,0.38
1.616,0.01,-0.09,0.23,0.11,0.2,0.32
1.616,0.01,-0.09,0.23,-0.09,-0.18,-0.08
1.617,0.01,-0.09,0.23,-0.09,-0.18,-0.08
1.617,0.01,-0.09,0.23,-0.09,-0.18,-0.08
1.617,0.01,-0.09,0.23,-0.09,-0.18,-0.08
1.617,0.01,-0.09,0.23,-0.12,-0.23,-0.09
1.617,0.01,-0.09,0.23,-0.14,-0.27,-0.11
1.617,0.08,0.17,-0.24,-0.14,-0.27,-0.11
1.618,0.08,0.17,-0.24,-0.14,-0.27,-0.11
1.618,0.08,0.17,-0.24,-0.17,-0.32,-0.14
1.618,0.08,0.17,-0.24,-0.19,-0.36,-0.15
1.62,0.08,0.17,-0.24,-0.19,-0.36,-0.15
1.624,0.08,0.17,-0.24,-0.19,-0.36,-0.16
1.624,-0.36,0.33,-0.22,-0.19,-0.36,-0.16
1.624,-0.36,0.33,-0.22,-0.18,-0.37,-0.19
1.626,-0.36,0.33,-0.22,-0.19,-0.51,-0.23
1.633,-0.36,0.33,-0.22,-0.24,-0.49,-0.25
1.633,-0.36,0.33,-0.22,-0.29,-0.47,-0.3
1.633,-0.36,0.33,-0.22,-0.3,-0.43,-0.37
1.634,-0.58,0.3,-0.04,-0.3,-0.43,-0.37
1.634,-0.58,0.3,-0.04,-0.31,-0.38,-0.4
1.637,-0.58,0.3,-0.04,-0.31,-0.45,-0.47
1.638,-0.58,0.3,-0.04,-0.33,-0.4,-0.5
1.641,-0.58,0.3,-0.04,-0.37,-0.18,-0.5
1.656,-0.58,0.3,-0.04,-0.39,-0.04,-0.48
1.658,-0.58,0.3,-0.04,-0.61,0.29,-0.22
1.659,-0.58,0.3,-0.04,-0.61,0.29,-0.22
1.659,-0.58,0.3,-0.04,-0.61,0.29,-0.22
1.659,-0.58,0.3,-0.04,-0.58,0.23,-0.19
1.659,-0.58,0.3,-0.04,-0.45,0.06,-0.2
1.659,-0.58,0.3,-0.04,-0.45,0.06,-0.2
1.659,-0.89,-0.12,0.65,-0.45,0.06,-0.2
1.659,-0.86,-0.03,0.65,-0.45,0.06,-0.2
1.66,-0.86,-0.03,0.65,-0.41,-0.01,-0.22
1.66,-0.86,-0.03,0.65,-0.38,0.07,-0.19
1.663,-0.86,-0.03,0.65,-0.36,0.16,-0.15
1.67,-0.86,-0.03,0.65,-0.31,0.16,-0.15
1.67,-0.86,-0.03,0.65,-0.31,0.19,-0.13
1.67,-0.86,-0.03,0.65,-0.31,0.17,-0.11
1.671,-0.86,-0.03,0.65,-0.31,0.07,-0.11
1.671,-0.52,-0.03,0.8,-0.31,0.07,-0.11
1.671,-0.52,-0.03,0.8,-0.34,-0.02,-0.09
1.674,-0.52,-0.03,0.8,-0.37,-0.07,-0.09
1.674,-0.2,0,0.68,-0.37,-0.07,-0.09
1.674,-0.2,0,0.68,-0.41,-0.19,-0.1
1.677,-0.2,0,0.68,-0.47,-0.31,-0.11
1.679,-0.2,0,0.68,-0.5,-0.36,-0.11
1.68,-0.2,0,0.68,-0.56,-0.5,-0.13
1.696,-0.2,0,0.68,-0.55,-0.49,-0.15
1.697,-0.2,0,0.68,-0.44,-0.81,-0.3
1.697,-0.2,0,0.68,-0.44,-0.81,-0.3
1.697,-0.2,0,0.68,-0.41,-0.92,-0.3
1.697,-0.2,0,0.68,-0.41,-0.92,-0.3
1.698,-0.2,0,0.68,-0.39,-1.02,-0.29
1.698,-0.2,0,0.68,-0.39,-1.02,-0.29
1.698,-0.2,0,0.68,-0.37,-1.12,-0.28
1.698,0.12,-0.19,1.47,-0.37,-1.12,-0.28
1.698,0.08,-0.13,1.48,-0.37,-1.12,-0.28
1.698,0,-0.09,1.48,-0.37,-1.12,-0.28
1.698,0,-0.09,1.48,-0.34,-1.35,-0.24
1.7,0,-0.09,1.48,-0.33,-1.44,-0.22
1.704,0,-0.09,1.48,-0.31,-1.63,-0.18
1.704,0.09,-0.03,2.1,-0.31,-1.63,-0.18
1.704,0.09,-0.03,2.1,-0.29,-1.83,-0.13
1.706,0.09,-0.03,2.1,-0.29,-2.02,-0.09
1.708,0.09,-0.03,2.1,-0.28,-2.13,-0.06
1.71,0.09,-0.03,2.1,-0.27,-2.32,-0.02
1.713,0.09,-0.03,2.1,-0.27,-2.54,0.03
1.713,-0.13,0.13,2.41,-0.27,-2.54,0.03
1.714,-0.13,0.13,2.41,-0.26,-2.76,0.08
1.716,-0.13,0.13,2.41,-0.26,-2.89,0.11
1.718,-0.13,0.13,2.41,-0.25,-3.19,0.19
1.72,-0.13,0.13,2.41,-0.24,-3.52,0.28
1.735,-0.13,0.13,2.41,-0.22,-3.69,0.32
1.736,-0.13,0.13,2.41,-0.22,-5.17,0.95
1.736,-0.13,0.13,2.41,-0.22,-5.17,0.95
1.736,-0.13,0.13,2.41,-0.22,-5.17,0.95
1.736,-0.13,0.13,2.41,-0.22,-5.17,0.95
1.736,-0.13,0.13,2.41,-0.2,-5.37,1.05
1.736,-0.13,0.13,2.41,-0.17,-5.59,1.15
1.737,-0.22,0.17,4.37,-0.17,-5.59,1.15
1.737,-1.07,0.22,4.48,-0.17,-5.59,1.15
1.737,-1.07,0.22,4.48,-0.11,-6.06,1.36
1.738,-1.07,0.22,4.48,-0.06,-6.3,1.45
1.742,-1.07,0.22,4.48,0.04,-6.8,1.62
1.744,-1.07,0.22,4.48,0.13,-7.31,1.76
1.744,-1.43,0.27,5.33,0.13,-7.31,1.76
1.748,-1.43,0.27,5.33,0.22,-7.82,1.89
1.749,-1.43,0.27,5.33,0.25,-8.05,1.93
1.749,-1.43,0.27,5.33,0.3,-8.56,2.06
1.75,-1.43,0.27,5.33,0.34,-9.08,2.18
1.754,-1.43,0.27,5.33,0.37,-9.34,2.25
1.754,-1.14,0.35,5.76,0.37,-9.34,2.25
1.754,-1.14,0.35,5.76,0.4,-9.77,2.4
1.757,-1.14,0.35,5.76,0.45,-10.05,2.59
1.759,-1.14,0.35,5.76,0.52,-10.02,2.78
1.76,-1.14,0.35,5.76,0.58,-9.76,2.81
1.776,-1.14,0.35,5.76,0.87,-8.71,2.61
1.777,-1.14,0.35,5.76,3.21,-0.73,-1.77
1.777,-1.14,0.35,5.76,3.21,-0.73,-1.77
1.777,-1.14,0.35,5.76,3.21,-0.73,-1.77
1.777,-1.14,0.35,5.76,3.33,-0.25,-2.2
1.777,-1.14,0.35,5.76,3.37,0.1,-2.51
1.778,-1.14,0.35,5.76,3.37,0.1,-2.51
1.778,-1.14,0.35,5.76,3.28,0.53,-2.84
1.778,2.46,0.82,0.86,3.28,0.53,-2.84
1.778,1.63,0.49,1.23,3.28,0.53,-2.84
1.778,1.6,0.1,1.24,3.28,0.53,-2.84
1.778,1.6,0.1,1.24,3.02,0.69,-2.91
1.78,1.6,0.1,1.24,2.6,0.76,-2.77
1.783,1.6,0.1,1.24,2.34,0.79,-2.63
1.784,-0.29,-1.46,-0.9,2.34,0.79,-2.63
1.784,-0.29,-1.46,-0.9,1.74,0.84,-2.28
1.787,-0.29,-1.46,-0.9,1.16,0.89,-1.9
1.788,-0.29,-1.46,-0.9,0.65,0.87,-1.55
1.79,-0.29,-1.46,-0.9,0.4,0.82,-1.39
1.793,-0.29,-1.46,-0.9,-0.14,0.63,-1.12
1.793,-1.77,-2.1,-4.43,-0.14,0.63,-1.12
1.794,-1.77,-2.1,-4.43,-0.72,0.37,-0.92
1.796,-1.77,-2.1,-4.43,-1,0.24,-0.85
1.799,-1.77,-2.1,-4.43,-1.52,0.02,-0.71
1.8,-1.77,-2.1,-4.43,-1.92,-0.14,-0.58
1.816,-1.77,-2.1,-4.43,-2.19,-0.27,-0.44
1.817,-1.77,-2.1,-4.43,-2.21,-0.53,-0.06
1.817,-1.77,-2.1,-4.43,-2.1,-0.49,-0.06
1.82,-1.77,-2.1,-4.43,-1.98,-0.45,-0.06
1.821,-1.77,-2.1,-4.43,-1.98,-0.45,-0.06
1.821,-1.77,-2.1,-4.43,-1.98,-0.45,-0.06
1.821,-1.77,-2.1,-4.43,-1.98,-0.45,-0.06
1.822,-1.77,-2.1,-4.43,-1.7,-0.35,-0.09
1.822,-1.53,-3.39,-0.75,-1.7,-0.35,-0.09
1.822,-1.59,-3.03,-0.73,-1.7,-0.35,-0.09
1.822,-1.64,-2.85,-0.71,-1.7,-0.35,-0.09
1.823,-1.64,-2.85,-0.71,-1.54,-0.3,-0.11
1.823,-1.64,-2.85,-0.71,-1.22,-0.21,-0.16
1.825,-1.64,-2.85,-0.71,-0.9,-0.16,-0.19
1.825,-1.64,-2.85,-0.71,-0.58,-0.13,-0.21
1.825,-1.26,-3.23,1.46,-0.58,-0.13,-0.21
1.826,-1.26,-3.23,1.46,-0.44,-0.13,-0.21
1.83,-1.26,-3.23,1.46,-0.17,-0.13,-0.22
1.833,-1.26,-3.23,1.46,0.04,-0.13,-0.22
1.834,-1.26,-3.23,1.46,0.18,-0.09,-0.23
1.834,-1.01,-2.23,2.99,0.18,-0.09,-0.23
1.836,-1.01,-2.23,2.99,0.25,-0.07,-0.23
1.837,-1.01,-2.23,2.99,0.37,-0.05,-0.23
1.838,-1.01,-2.23,2.99,0.5,-0.05,-0.25
1.84,-1.01,-2.23,2.99,0.55,-0.07,-0.28
1.856,-1.01,-2.23,2.99,0.7,-0.12,-0.33
1.857,-1.01,-2.23,2.99,1.39,-0.05,-0.77
1.858,-1.01,-2.23,2.99,1.39,-0.05,-0.77
1.858,-1.01,-2.23,2.99,1.47,0,-0.84
1.858,-1.01,-2.23,2.99,1.47,0,-0.84
1.859,-1.01,-2.23,2.99,1.55,0.06,-0.91
1.859,-1.01,-2.23,2.99,1.55,0.06,-0.91
1.859,-1.01,-2.23,2.99,1.7,0.17,-1.05
1.859,2.33,-1.1,6.37,1.7,0.17,-1.05
1.86,2.32,-1.34,6.38,1.7,0.17,-1.05
1.86,2.32,-1.5,6.38,1.7,0.17,-1.05
1.86,2.32,-1.5,6.38,1.83,0.27,-1.19
1.861,2.32,-1.5,6.38,1.94,0.37,-1.33
1.865,2.32,-1.5,6.38,1.98,0.41,-1.4
1.865,2.32,-1.5,6.38,2.05,0.5,-1.54
1.865,2.9,-1.36,6.54,2.05,0.5,-1.54
1.866,2.9,-1.36,6.54,2.11,0.56,-1.67
1.868,2.9,-1.36,6.54,2.14,0.63,-1.79
1.87,2.9,-1.36,6.54,2.15,0.66,-1.86
1.873,2.9,-1.36,6.54,2.16,0.72,-1.97
1.873,2.93,-1.32,6.07,2.16,0.72,-1.97
1.874,2.93,-1.32,6.07,2.16,0.8,-2.08
1.876,2.93,-1.32,6.07,2.16,0.89,-2.17
1.878,2.93,-1.32,6.07,2.16,0.94,-2.22
1.88,2.93,-1.32,6.07,2.15,1.03,-2.31
1.896,2.93,-1.32,6.07,2.14,1.15,-2.4
1.897,2.93,-1.32,6.07,1.94,1.49,-2.82
1.897,2.93,-1.32,6.07,1.94,1.49,-2.82
1.897,2.93,-1.32,6.07,1.94,1.49,-2.82
1.897,2.93,-1.32,6.07,1.89,1.52,-2.87
1.897,2.93,-1.32,6.07,1.84,1.56,-2.93
1.897,2.93,-1.32,6.07,1.84,1.56,-2.93
1.898,2.83,-1.75,3.85,1.84,1.56,-2.93
1.898,3.12,-2.33,3.79,1.84,1.56,-2.93
1.898,3.29,-2.61,3.76,1.84,1.56,-2.93
1.898,3.29,-2.61,3.76,1.73,1.68,-3.03
1.898,3.29,-2.61,3.76,1.69,1.84,-3.07
1.9,3.29,-2.61,3.76,1.68,1.92,-3.08
1.903,3.29,-2.61,3.76,1.63,2.1,-3.11
1.903,3.05,-2.48,3.1,1.63,2.1,-3.11
1.904,3.05,-2.48,3.1,1.54,2.27,-3.15
1.906,3.05,-2.48,3.1,1.5,2.35,-3.17
1.908,3.05,-2.48,3.1,1.42,2.53,-3.22
1.91,3.05,-2.48,3.1,1.33,2.72,-3.26
1.914,3.05,-2.48,3.1,1.23,2.94,-3.27
1.914,2.63,-3,2.36,1.23,2.94,-3.27
1.914,2.63,-3,2.36,1.18,3.06,-3.27
1.917,2.63,-3,2.36,1.07,3.28,-3.23
1.918,2.63,-3,2.36,0.95,3.49,-3.15
1.92,2.63,-3,2.36,0.87,3.66,-3.02
1.936,2.63,-3,2.36,0.82,3.73,-2.95
1.937,2.63,-3,2.36,0.28,4.33,-2.6
1.937,2.63,-3,2.36,0.22,4.4,-2.59
1.937,2.63,-3,2.36,0.16,4.47,-2.59
1.937,2.63,-3,2.36,0.16,4.47,-2.59
1.937,2.63,-3,2.36,0.16,4.47,-2.59
1.938,2.63,-3,2.36,0.16,4.47,-2.59
1.938,0.42,-3.13,-0.29,0.16,4.47,-2.59
1.938,0.82,-3.3,-0.39,0.16,4.47,-2.59
1.938,1.28,-3.39,-0.5,0.16,4.47,-2.59
1.939,1.28,-3.39,-0.5,0.09,4.52,-2.59
1.939,1.28,-3.39,-0.5,-0.04,4.62,-2.59
1.94,1.28,-3.39,-0.5,-0.18,4.66,-2.6
1.944,1.28,-3.39,-0.5,-0.35,4.65,-2.61
1.944,1.3,-3.25,-1.11,-0.35,4.65,-2.61
1.944,1.3,-3.25,-1.11,-0.43,4.66,-2.62
1.949,1.3,-3.25,-1.11,-0.6,4.63,-2.64
1.95,1.3,-3.25,-1.11,-0.78,4.61,-2.66
1.951,1.3,-3.25,-1.11,-0.86,4.61,-2.67
1.954,1.3,-3.25,-1.11,-1.03,4.63,-2.69
1.955,1.4,-2.79,-1.48,-1.03,4.63,-2.69
1.955,1.4,-2.79,-1.48,-1.16,4.72,-2.69
1.957,1.4,-2.79,-1.48,-1.23,4.87,-2.64
1.959,1.4,-2.79,-1.48,-1.26,4.95,-2.61
1.96,1.4,-2.79,-1.48,-1.31,5.1,-2.59
1.976,1.4,-2.79,-1.48,-1.33,5.22,-2.57
1.977,1.4,-2.79,-1.48,-1.1,6.36,-2.46
1.977,1.4,-2.79,-1.48,-1.1,6.36,-2.46
1.98,1.4,-2.79,-1.48,-1.1,6.36,-2.46
1.981,1.4,-2.79,-1.48,-1.1,6.36,-2.46
1.981,1.4,-2.79,-1.48,-1.01,6.54,-2.43
1.981,1.4,-2.79,-1.48,-0.91,6.72,-2.4
1.982,0.38,-2.37,1.59,-0.91,6.72,-2.4
1.982,1.59,-2.16,1.49,-0.91,6.72,-2.4
1.982,2.26,-2.04,1.5,-0.91,6.72,-2.4
1.983,2.26,-2.04,1.5,-0.68,7.11,-2.34
1.984,2.26,-2.04,1.5,-0.41,7.44,-2.28
1.985,2.26,-2.04,1.5,-0.27,7.57,-2.24
1.985,2.26,-2.04,1.5,0.05,7.78,-2.14
1.985,2.26,-2.04,1.5,0.37,7.91,-2.03
1.985,1.09,-1.98,3.36,0.37,7.91,-2.03
1.986,1.09,-1.98,3.36,0.68,7.99,-1.9
1.989,1.09,-1.98,3.36,0.82,8.01,-1.83
1.99,1.09,-1.98,3.36,1.09,8.03,-1.7
1.993,1.09,-1.98,3.36,1.33,8.02,-1.58
1.993,1.02,-1.74,4.48,1.33,8.02,-1.58
1.994,1.02,-1.74,4.48,1.43,8.02,-1.53
1.997,1.02,-1.74,4.48,1.62,7.99,-1.44
1.998,1.02,-1.74,4.48,1.77,7.95,-1.37
2,1.02,-1.74,4.48,1.88,7.9,-1.32
2.017,1.02,-1.74,4.48,1.93,7.87,-1.31
2.017,1.02,-1.74,4.48,2.19,7.39,-1.28
2.018,1.02,-1.74,4.48,2.21,7.31,-1.28
2.018,1.02,-1.74,4.48,2.21,7.31,-1.28
2.018,1.02,-1.74,4.48,2.21,7.31,-1.28
2.018,1.02,-1.74,4.48,2.23,7.24,-1.29
2.019,1.02,-1.74,4.48,2.23,7.17,-1.3
2.019,1.02,-1.74,4.48,2.21,7.09,-1.32
2.019,2.23,-1.94,3.01,2.21,7.09,-1.32
2.02,3.66,-2.22,3.59,2.21,7.09,-1.32
2.02,4.31,-2.36,3.95,2.21,7.09,-1.32
2.02,4.31,-2.36,3.95,2.16,6.94,-1.39
2.021,4.31,-2.36,3.95,2.08,6.79,-1.49
2.024,4.31,-2.36,3.95,1.98,6.65,-1.62
2.024,4.95,-2.51,1.96,1.98,6.65,-1.62
2.024,4.95,-2.51,1.96,1.93,6.58,-1.68
2.026,4.95,-2.51,1.96,1.81,6.45,-1.8
2.028,4.95,-2.51,1.96,1.69,6.32,-1.9
2.031,4.95,-2.51,1.96,1.58,6.19,-1.98
2.034,4.95,-2.51,1.96,1.53,6.11,-2.01
2.034,5.46,-2.45,1.02,1.53,6.11,-2.01
2.034,5.46,-2.45,1.02,1.42,5.95,-2.07
2.036,5.46,-2.45,1.02,1.33,5.73,-2.1
2.038,5.46,-2.45,1.02,1.3,5.58,-2.12
2.04,5.46,-2.45,1.02,1.25,5.13,-2.17
2.059,5.46,-2.45,1.02,1.22,4.69,-2.22
2.06,5.46,-2.45,1.02,1.17,3.07,-2.39
2.06,5.46,-2.45,1.02,1.16,2.89,-2.42
2.06,5.46,-2.45,1.02,1.14,2.72,-2.47
2.06,5.46,-2.45,1.02,1.14,2.72,-2.47
2.06,5.46,-2.45,1.02,1.14,2.72,-2.47
2.06,5.46,-2.45,1.02,1.14,2.72,-2.47
2.061,5.46,-2.45,1.02,1.14,2.34,-2.54
2.061,5.46,-2.45,1.02,1.13,1.97,-2.62
2.061,4.43,-1.53,-0.92,1.13,1.97,-2.62
2.061,5.12,-1.43,-0.39,1.13,1.97,-2.62
2.061,5.38,-1.35,-0.17,1.13,1.97,-2.62
2.061,5.38,-1.35,-0.17,1.13,1.78,-2.65
2.064,5.38,-1.35,-0.17,1.14,1.41,-2.7
2.064,4.94,-1.11,-0.52,1.14,1.41,-2.7
2.065,4.94,-1.11,-0.52,1.16,1.1,-2.74
2.067,4.94,-1.11,-0.52,1.17,0.82,-2.76
2.068,4.94,-1.11,-0.52,1.18,0.68,-2.76
2.07,4.94,-1.11,-0.52,1.2,0.38,-2.74
2.073,4.94,-1.11,-0.52,1.23,0.08,-2.7
2.073,4.41,-0.76,-0.64,1.23,0.08,-2.7
2.074,4.41,-0.76,-0.64,1.25,-0.22,-2.64
2.076,4.41,-0.76,-0.64,1.27,-0.38,-2.6
2.079,4.41,-0.76,-0.64,1.31,-0.7,-2.53
2.08,4.41,-0.76,-0.64,1.36,-1.03,-2.44
2.101,4.41,-0.76,-0.64,1.39,-1.21,-2.39
2.102,4.41,-0.76,-0.64,1.73,-2.86,-1.9
2.103,4.41,-0.76,-0.64,1.73,-2.86,-1.9
2.103,4.41,-0.76,-0.64,1.73,-2.86,-1.9
2.103,4.41,-0.76,-0.64,1.77,-3.05,-1.85
2.103,4.41,-0.76,-0.64,1.82,-3.24,-1.81
2.104,4.41,-0.76,-0.64,1.82,-3.24,-1.81
2.104,4.41,-0.76,-0.64,1.91,-3.62,-1.72
2.104,4.41,-0.76,-0.64,1.96,-3.81,-1.68
2.104,1.6,0.09,0.18,1.96,-3.81,-1.68
2.104,1.42,0.17,-0.02,1.96,-3.81,-1.68
2.104,1.25,0.17,-0.18,1.96,-3.81,-1.68
2.105,1.25,0.17,-0.18,2.05,-4.2,-1.61
2.105,1.25,0.17,-0.18,2.16,-4.57,-1.53
2.105,0.66,0.26,0.15,2.16,-4.57,-1.53
2.105,0.66,0.26,0.15,2.21,-4.76,-1.49
2.106,0.66,0.26,0.15,2.33,-5.13,-1.41
2.109,0.66,0.26,0.15,2.45,-5.49,-1.34
2.11,0.66,0.26,0.15,2.56,-5.84,-1.28
2.114,0.66,0.26,0.15,2.62,-6.02,-1.25
2.115,0.17,0.14,0.18,2.62,-6.02,-1.25
2.115,0.17,0.14,0.18,2.73,-6.35,-1.21
2.116,0.17,0.14,0.18,2.84,-6.69,-1.17
2.119,0.17,0.14,0.18,2.89,-6.85,-1.16
2.12,0.17,0.14,0.18,3,-7.17,-1.14
2.138,0.17,0.14,0.18,3.1,-7.47,-1.13
2.138,0.17,0.14,0.18,3.46,-8.49,-1.2
2.139,0.17,0.14,0.18,3.46,-8.49,-1.2
2.141,0.17,0.14,0.18,3.46,-8.49,-1.2
2.141,0.17,0.14,0.18,3.42,-8.47,-1.21
2.141,0.17,0.14,0.18,3.3,-8.3,-1.25
2.141,0.17,0.14,0.18,3.3,-8.3,-1.25
2.141,0.17,0.14,0.18,2.98,-7.78,-1.4
2.141,1.29,-1.01,-0.54,2.98,-7.78,-1.4
2.141,0.09,-1.4,-1.2,2.98,-7.78,-1.4
2.142,-0.58,-1.64,-1.45,2.98,-7.78,-1.4
2.142,-0.58,-1.64,-1.45,2.76,-7.21,-1.55
2.142,-0.58,-1.64,-1.45,2.53,-6.31,-1.64
2.143,-0.58,-1.64,-1.45,2.41,-5.7,-1.66
2.144,-0.27,-1.57,-1.47,2.41,-5.7,-1.66
2.144,-0.27,-1.57,-1.47,2.25,-4.78,-1.69
2.149,-0.27,-1.57,-1.47,2.2,-4.28,-1.64
2.15,-0.27,-1.57,-1.47,2.19,-4.09,-1.6
2.151,-0.27,-1.57,-1.47,2.2,-3.78,-1.48
2.154,-0.27,-1.57,-1.47,2.21,-3.46,-1.32
2.155,-0.27,-1.57,-1.47,2.18,-2.99,-1.14
2.155,-0.48,-1.34,-1.22,2.18,-2.99,-1.14
2.157,-0.48,-1.34,-1.22,2.16,-2.65,-1.04
2.158,-0.48,-1.34,-1.22,2.1,-1.85,-0.86
2.16,-0.48,-1.34,-1.22,2.04,-1.05,-0.69
2.176,-0.48,-1.34,-1.22,1.98,-0.43,-0.54
2.176,-0.48,-1.34,-1.22,1.69,0.94,-0.12
2.176,-0.48,-1.34,-1.22,1.64,1.04,-0.1
2.177,-0.48,-1.34,-1.22,1.59,1.12,-0.09
2.177,-0.48,-1.34,-1.22,1.59,1.12,-0.09
2.177,-0.48,-1.34,-1.22,1.59,1.12,-0.09
2.177,-0.48,-1.34,-1.22,1.59,1.12,-0.09
2.177,0.9,-1.41,-2.6,1.59,1.12,-0.09
2.177,0.96,-1.71,-2.46,1.59,1.12,-0.09
2.178,0.96,-1.71,-2.46,1.46,1.18,-0.11
2.179,0.96,-1.71,-2.46,1.39,1.17,-0.14
2.18,0.96,-1.71,-2.46,1.23,1.05,-0.22
2.184,0.96,-1.71,-2.46,1.05,0.8,-0.33
2.184,1.57,-2.05,-2.71,1.05,0.8,-0.33
2.185,1.57,-2.05,-2.71,0.86,0.47,-0.46
2.186,1.57,-2.05,-2.71,0.77,0.28,-0.53
2.188,1.57,-2.05,-2.71,0.58,-0.09,-0.67
2.19,1.57,-2.05,-2.71,0.41,-0.46,-0.81
2.193,1.57,-2.05,-2.71,0.34,-0.63,-0.87
2.193,1.73,-2.11,-2.8,0.34,-0.63,-0.87
2.194,1.73,-2.11,-2.8,0.21,-0.94,-0.98
2.196,1.73,-2.11,-2.8,0.13,-1.17,-1.05
2.198,1.73,-2.11,-2.8,0.09,-1.34,-1.1
2.2,1.73,-2.11,-2.8,0.08,-1.4,-1.1
2.217,1.73,-2.11,-2.8,0.1,-1.43,-1.08
2.217,1.73,-2.11,-2.8,0.41,-1.83,-0.59
2.217,1.73,-2.11,-2.8,0.41,-1.83,-0.59
2.218,1.73,-2.11,-2.8,0.41,-1.83,-0.59
2.218,1.73,-2.11,-2.8,0.47,-1.96,-0.5
2.218,1.73,-2.11,-2.8,0.47,-1.96,-0.5
2.218,1.73,-2.11,-2.8,0.53,-2.09,-0.42
2.218,-0.71,-0.26,0.7,0.53,-2.09,-0.42
2.218,-0.93,-0.26,0.61,0.53,-2.09,-0.42
2.219,-0.93,-0.26,0.61,0.66,-2.38,-0.25
2.219,-0.93,-0.26,0.61,0.8,-2.67,-0.1
2.221,-0.93,-0.26,0.61,0.93,-2.97,0.04
2.224,-0.93,-0.26,0.61,1,-3.12,0.1
2.224,-1.14,0.2,1.61,1,-3.12,0.1
2.224,-1.14,0.2,1.61,1.14,-3.41,0.21
2.226,-1.14,0.2,1.61,1.28,-3.7,0.31
2.235,-1.14,0.2,1.61,1.41,-3.96,0.39
2.237,-1.14,0.2,1.61,1.48,-4.07,0.42
2.237,-1.14,0.2,1.61,1.58,-4.26,0.47
2.237,-1.41,0.11,1.56,1.58,-4.26,0.47
2.238,-1.41,0.11,1.56,1.68,-4.4,0.49
2.238,-1.41,0.11,1.56,1.72,-4.46,0.5
2.238,-1.41,0.11,1.56,1.79,-4.57,0.5
2.24,-1.41,0.11,1.56,1.87,-4.66,0.48
2.256,-1.41,0.11,1.56,1.92,-4.73,0.46
2.257,-1.41,0.11,1.56,2.07,-4.86,0.26
2.257,-1.41,0.11,1.56,2.07,-4.86,0.26
2.257,-1.41,0.11,1.56,2.07,-4.86,0.26
2.257,-1.41,0.11,1.56,2.08,-4.86,0.23
2.257,-1.41,0.11,1.56,2.09,-4.85,0.21
2.258,-1.41,0.11,1.56,2.09,-4.85,0.21
2.258,-1.35,-0.09,1.59,2.09,-4.85,0.21
2.258,-2.2,-0.44,1.57,2.09,-4.85,0.21
2.258,-2.2,-0.44,1.57,2.11,-4.79,0.16
2.259,-2.2,-0.44,1.57,2.11,-4.76,0.13
2.261,-2.2,-0.44,1.57,2.12,-4.65,0.08
2.266,-2.2,-0.44,1.57,2.11,-4.51,0.03
2.267,-2.2,-0.44,1.57,2.08,-4.32,-0.03
2.267,-2.84,-0.84,1.51,2.08,-4.32,-0.03
2.267,-2.84,-0.84,1.51,2.06,-4.19,-0.05
2.269,-2.84,-0.84,1.51,1.99,-3.88,-0.11
2.27,-2.84,-0.84,1.51,1.88,-3.49,-0.18
2.275,-2.84,-0.84,1.51,1.75,-3.07,-0.24
2.275,-2.84,-0.84,1.51,1.7,-2.89,-0.27
2.275,-3.31,-1.22,1.32,1.7,-2.89,-0.27
2.277,-3.31,-1.22,1.32,1.61,-2.59,-0.29
2.281,-3.31,-1.22,1.32,1.58,-2.39,-0.28
2.281,-3.31,-1.22,1.32,1.58,-2.3,-0.25
2.297,-3.31,-1.22,1.32,1.58,-2.15,-0.19
2.297,-3.31,-1.22,1.32,1.51,-1.44,0.21
2.298,-3.31,-1.22,1.32,1.49,-1.38,0.24
2.298,-3.31,-1.22,1.32,1.48,-1.33,0.27
2.298,-3.31,-1.22,1.32,1.48,-1.33,0.27
2.298,-3.31,-1.22,1.32,1.48,-1.33,0.27
2.302,-3.31,-1.22,1.32,1.48,-1.33,0.27
2.302,-3.31,-1.22,1.32,1.47,-1.28,0.3
2.303,-2.53,-1.84,0.97,1.47,-1.28,0.3
2.303,-2.7,-1.97,1.04,1.47,-1.28,0.3
2.303,-2.82,-2.09,1.11,1.47,-1.28,0.3
2.303,-2.82,-2.09,1.11,1.43,-1.2,0.34
2.304,-2.82,-2.09,1.11,1.39,-1.13,0.37
2.304,-2.82,-2.09,1.11,1.37,-1.11,0.37
2.304,-2.82,-2.09,1.11,1.33,-1.05,0.37
2.305,-1.86,-2.1,0.71,1.33,-1.05,0.37
2.308,-1.86,-2.1,0.71,1.29,-1.01,0.38
2.308,-1.86,-2.1,0.71,1.27,-1,0.39
2.31,-1.86,-2.1,0.71,1.26,-1,0.4
2.313,-1.86,-2.1,0.71,1.24,-1,0.41
2.314,-1.09,-1.86,0.46,1.24,-1,0.41
2.314,-1.09,-1.86,0.46,1.23,-1,0.43
2.316,-1.09,-1.86,0.46,1.22,-1,0.45
2.32,-1.09,-1.86,0.46,1.21,-1,0.46
2.32,-1.09,-1.86,0.46,1.21,-1,0.48
2.336,-1.09,-1.86,0.46,1.2,-1.03,0.5
2.336,-1.09,-1.86,0.46,1.22,-1.27,0.61
2.336,-1.09,-1.86,0.46,1.22,-1.27,0.61
2.336,-1.09,-1.86,0.46,1.22,-1.27,0.61
2.336,-1.09,-1.86,0.46,1.22,-1.27,0.61
2.336,-1.09,-1.86,0.46,1.22,-1.27,0.61
2.337,-1.09,-1.86,0.46,1.24,-1.4,0.64
2.337,-0.38,-1.26,0.34,1.24,-1.4,0.64
2.337,-0.49,-1.36,0.4,1.24,-1.4,0.64
2.337,-0.49,-1.36,0.4,1.26,-1.55,0.67
2.338,-0.49,-1.36,0.4,1.28,-1.73,0.7
2.34,-0.49,-1.36,0.4,1.29,-1.83,0.71
2.344,-0.49,-1.36,0.4,1.32,-2.02,0.72
2.344,-0.49,-1.36,0.4,1.35,-2.22,0.73
2.345,-0.31,-1.35,0.67,1.35,-2.22,0.73
2.349,-0.31,-1.35,0.67,1.36,-2.32,0.73
2.349,-0.31,-1.35,0.67,1.4,-2.5,0.73
2.35,-0.31,-1.35,0.67,1.44,-2.64,0.72
2.357,-0.31,-1.35,0.67,1.47,-2.72,0.7
2.358,-0.31,-1.35,0.67,1.49,-2.74,0.69
2.358,-0.28,-1.37,0.96,1.49,-2.74,0.69
2.358,-0.28,-1.37,0.96,1.52,-2.74,0.66
2.358,-0.28,-1.37,0.96,1.55,-2.69,0.63
2.36,-0.28,-1.37,0.96,1.58,-2.61,0.6
2.377,-0.28,-1.37,0.96,1.6,-2.55,0.58
2.378,-0.28,-1.37,0.96,1.81,-1.58,0.51
2.378,-0.28,-1.37,0.96,1.83,-1.43,0.5
2.378,-0.28,-1.37,0.96,1.85,-1.27,0.49
2.378,-0.28,-1.37,0.96,1.85,-1.27,0.49
2.378,-0.28,-1.37,0.96,1.85,-1.27,0.49
2.378,-0.28,-1.37,0.96,1.85,-1.27,0.49
2.378,-0.28,-1.37,0.96,1.86,-1.11,0.47
2.378,-0.41,-0.98,0.56,1.86,-1.11,0.47
2.379,-0.64,-1.09,0.67,1.86,-1.11,0.47
2.379,-0.79,-1.22,0.79,1.86,-1.11,0.47
2.38,-0.79,-1.22,0.79,1.89,-0.76,0.45
2.385,-0.79,-1.22,0.79,1.92,-0.41,0.44
2.386,-0.79,-1.22,0.79,1.95,-0.07,0.45
2.386,-0.62,-1.01,0.44,1.95,-0.07,0.45
2.386,-0.62,-1.01,0.44,1.96,0.1,0.46
2.389,-0.62,-1.01,0.44,1.99,0.42,0.47
2.389,-0.62,-1.01,0.44,2.01,0.68,0.51
2.394,-0.62,-1.01,0.44,2.02,0.8,0.54
2.394,-0.62,-1.01,0.44,2.03,1.01,0.59
2.394,-0.62,-1.01,0.44,2.03,1.19,0.65
2.394,-0.39,-1.18,0.29,2.03,1.19,0.65
2.397,-0.39,-1.18,0.29,2.02,1.33,0.71
2.398,-0.39,-1.18,0.29,2.02,1.38,0.75
2.4,-0.39,-1.18,0.29,2.01,1.44,0.82
2.416,-0.39,-1.18,0.29,2,1.47,0.89
2.417,-0.39,-1.18,0.29,1.83,1.71,1.09
2.417,-0.39,-1.18,0.29,1.83,1.71,1.09
2.417,-0.39,-1.18,0.29,1.8,1.75,1.11
2.417,-0.39,-1.18,0.29,1.77,1.8,1.13
2.417,-0.39,-1.18,0.29,1.77,1.8,1.13
2.418,-0.39,-1.18,0.29,1.77,1.8,1.13
2.418,-0.39,-1.18,0.29,1.71,1.87,1.17
2.418,0.32,-1.33,0.2,1.71,1.87,1.17
2.418,0.38,-1.47,0.31,1.71,1.87,1.17
2.418,0.43,-1.59,0.41,1.71,1.87,1.17
2.418,0.43,-1.59,0.41,1.65,1.93,1.22
2.42,0.43,-1.59,0.41,1.62,1.95,1.24
2.423,0.43,-1.59,0.41,1.57,1.97,1.29
2.423,0.67,-1.38,0.08,1.57,1.97,1.29
2.424,0.67,-1.38,0.08,1.51,1.93,1.32
2.426,0.67,-1.38,0.08,1.42,1.83,1.34
2.428,0.67,-1.38,0.08,1.38,1.77,1.34
2.43,0.67,-1.38,0.08,1.27,1.59,1.33
2.434,0.67,-1.38,0.08,1.16,1.37,1.32
2.435,0.47,-1.5,-0.27,1.16,1.37,1.32
2.438,0.47,-1.5,-0.27,1.1,1.26,1.32
2.438,0.47,-1.5,-0.27,0.98,1.06,1.3
2.438,0.47,-1.5,-0.27,0.86,0.89,1.28
2.44,0.47,-1.5,-0.27,0.76,0.74,1.26
2.458,0.47,-1.5,-0.27,0.72,0.67,1.24
2.459,0.47,-1.5,-0.27,0.7,0.17,1.29
2.459,0.47,-1.5,-0.27,0.7,0.17,1.29
2.459,0.47,-1.5,-0.27,0.7,0.17,1.29
2.459,0.47,-1.5,-0.27,0.73,0.12,1.3
2.46,0.47,-1.5,-0.27,0.77,0.08,1.32
2.46,0.47,-1.5,-0.27,0.77,0.08,1.32
2.462,0.47,-1.5,-0.27,0.81,0.03,1.33
2.463,0.47,-1.5,-0.27,0.9,-0.06,1.36
2.463,-0.22,-0.82,-0.28,0.9,-0.06,1.36
2.463,-0.33,-0.89,-0.19,0.9,-0.06,1.36
2.463,-0.33,-0.89,-0.19,1,-0.14,1.37
2.464,-0.33,-0.89,-0.19,1.11,-0.23,1.38
2.465,-0.33,-0.89,-0.19,1.16,-0.27,1.38
2.465,-0.42,-0.74,-0.05,1.16,-0.27,1.38
2.467,-0.42,-0.74,-0.05,1.26,-0.37,1.36
2.469,-0.42,-0.74,-0.05,1.36,-0.48,1.33
2.47,-0.42,-0.74,-0.05,1.44,-0.6,1.28
2.473,-0.42,-0.74,-0.05,1.48,-0.67,1.25
2.473,-0.36,-0.55,-0.02,1.48,-0.67,1.25
2.474,-0.36,-0.55,-0.02,1.54,-0.81,1.18
2.476,-0.36,-0.55,-0.02,1.58,-0.97,1.09
2.478,-0.36,-0.55,-0.02,1.59,-1.05,1.05
2.481,-0.36,-0.55,-0.02,1.61,-1.22,0.96
2.495,-0.36,-0.55,-0.02,1.62,-1.41,0.87
2.496,-0.36,-0.55,-0.02,1.65,-1.92,0.53
2.496,-0.36,-0.55,-0.02,1.65,-1.92,0.53
2.496,-0.36,-0.55,-0.02,1.65,-1.92,0.53
2.497,-0.36,-0.55,-0.02,1.65,-1.9,0.49
2.497,-0.36,-0.55,-0.02,1.66,-1.85,0.45
2.497,-0.36,-0.55,-0.02,1.66,-1.85,0.45
2.497,1.25,0.75,0.23,1.66,-1.85,0.45
2.497,0.93,0.56,0.5,1.66,-1.85,0.45
2.497,0.78,0.46,0.66,1.66,-1.85,0.45
2.498,0.78,0.46,0.66,1.66,-1.67,0.37
2.5,0.78,0.46,0.66,1.66,-1.4,0.3
2.5,0.78,0.46,0.66,1.65,-1.25,0.26
2.503,0.78,0.46,0.66,1.64,-0.95,0.2
2.503,1.47,0.48,0.85,1.64,-0.95,0.2
2.504,1.47,0.48,0.85,1.6,-0.7,0.14
2.506,1.47,0.48,0.85,1.56,-0.53,0.1
2.508,1.47,0.48,0.85,1.54,-0.47,0.08
2.51,1.47,0.48,0.85,1.48,-0.39,0.05
2.513,1.47,0.48,0.85,1.42,-0.34,0.04
2.514,1.76,0.12,0.76,1.42,-0.34,0.04
2.514,1.76,0.12,0.76,1.37,-0.29,0.02
2.516,1.76,0.12,0.76,1.34,-0.26,0.02
2.518,1.76,0.12,0.76,1.3,-0.17,0
2.52,1.76,0.12,0.76,1.25,-0.06,-0.03
2.535,1.76,0.12,0.76,1.24,0.01,-0.04
2.536,1.76,0.12,0.76,1.1,0.55,-0.14
2.536,1.76,0.12,0.76,1.08,0.59,-0.13
2.536,1.76,0.12,0.76,1.06,0.63,-0.12
2.536,1.76,0.12,0.76,1.06,0.63,-0.12
2.536,1.76,0.12,0.76,1.06,0.63,-0.12
2.537,1.76,0.12,0.76,1.06,0.63,-0.12
2.537,1.26,-0.54,0.39,1.06,0.63,-0.12
2.537,1.26,-0.61,0.48,1.06,0.63,-0.12
2.537,1.3,-0.67,0.54,1.06,0.63,-0.12
2.537,1.3,-0.67,0.54,1.03,0.68,-0.1
2.538,1.3,-0.67,0.54,1,0.7,-0.09
2.54,1.3,-0.67,0.54,0.97,0.71,-0.07
2.543,1.3,-0.67,0.54,0.93,0.7,-0.05
2.544,0.91,-0.91,0.14,0.93,0.7,-0.05
2.544,0.91,-0.91,0.14,0.92,0.68,-0.03
2.55,0.91,-0.91,0.14,0.91,0.66,-0.01
2.55,0.91,-0.91,0.14,0.89,0.63,0.01
2.552,0.91,-0.91,0.14,0.88,0.6,0.02
2.554,0.91,-0.91,0.14,0.88,0.58,0.03
2.554,0.8,-0.86,0.04,0.88,0.58,0.03
2.554,0.8,-0.86,0.04,0.87,0.53,0.04
2.556,0.8,-0.86,0.04,0.87,0.49,0.05
2.558,0.8,-0.86,0.04,0.86,0.44,0.07
2.56,0.8,-0.86,0.04,0.87,0.42,0.08
2.575,0.8,-0.86,0.04,0.87,0.37,0.09
2.576,0.8,-0.86,0.04,0.87,0.14,0.12
2.576,0.8,-0.86,0.04,0.87,0.14,0.12
2.576,0.8,-0.86,0.04,0.87,0.14,0.12
2.576,0.8,-0.86,0.04,0.86,0.11,0.11
2.576,0.8,-0.86,0.04,0.86,0.11,0.11
2.576,0.8,-0.86,0.04,0.86,0.06,0.11
2.577,0.89,-0.3,-0.47,0.86,0.06,0.11
2.577,0.9,-0.39,-0.35,0.86,0.06,0.11
2.577,0.9,-0.39,-0.35,0.84,-0.03,0.11
2.578,0.9,-0.39,-0.35,0.82,-0.13,0.09
2.582,0.9,-0.39,-0.35,0.79,-0.21,0.06
2.584,0.9,-0.39,-0.35,0.78,-0.24,0.04
2.584,0.9,-0.39,-0.35,0.76,-0.3,0
2.584,1.23,-0.44,-0.52,0.76,-0.3,0
2.586,1.23,-0.44,-0.52,0.75,-0.36,-0.04
2.588,1.23,-0.44,-0.52,0.74,-0.39,-0.06
2.59,1.23,-0.44,-0.52,0.75,-0.44,-0.09
2.593,1.23,-0.44,-0.52,0.76,-0.5,-0.13
2.593,1.45,-0.48,-0.42,0.76,-0.5,-0.13
2.594,1.45,-0.48,-0.42,0.78,-0.56,-0.16
2.599,1.45,-0.48,-0.42,0.79,-0.6,-0.18
2.6,1.45,-0.48,-0.42,0.8,-0.66,-0.21
2.6,1.45,-0.48,-0.42,0.82,-0.71,-0.23
2.616,1.45,-0.48,-0.42,0.83,-0.75,-0.23
2.617,1.45,-0.48,-0.42,0.9,-0.88,-0.06
2.617,1.45,-0.48,-0.42,0.9,-0.88,-0.06
2.617,1.45,-0.48,-0.42,0.91,-0.9,-0.02
2.617,1.45,-0.48,-0.42,0.92,-0.92,0.01
2.617,1.45,-0.48,-0.42,0.92,-0.92,0.01
2.617,1.45,-0.48,-0.42,0.92,-0.92,0.01
2.618,-0.35,0.19,-0.37,0.92,-0.92,0.01
2.618,-0.42,0.09,-0.21,0.92,-0.92,0.01
2.621,-0.42,0.09,-0.21,0.94,-0.95,0.07
2.621,-0.42,0.09,-0.21,0.95,-0.97,0.1
2.621,-0.42,0.09,-0.21,0.96,-1,0.15
2.623,-0.42,0.09,-0.21,0.96,-1.02,0.19
2.623,-0.62,0.19,-0.2,0.96,-1.02,0.19
2.624,-0.62,0.19,-0.2,0.96,-1.04,0.21
2.626,-0.62,0.19,-0.2,0.95,-1.03,0.21
2.628,-0.62,0.19,-0.2,0.93,-1.03,0.21
2.63,-0.62,0.19,-0.2,0.9,-1,0.2
2.633,-0.62,0.19,-0.2,0.88,-0.99,0.19
2.633,-0.28,0.07,-0.39,0.88,-0.99,0.19
2.634,-0.28,0.07,-0.39,0.84,-0.95,0.16
2.636,-0.28,0.07,-0.39,0.79,-0.89,0.11
2.638,-0.28,0.07,-0.39,0.73,-0.83,0.06
2.64,-0.28,0.07,-0.39,0.7,-0.8,0.02
2.655,-0.28,0.07,-0.39,0.63,-0.71,-0.04
2.656,-0.28,0.07,-0.39,0.34,-0.26,-0.22
2.656,-0.28,0.07,-0.39,0.31,-0.21,-0.24
2.656,-0.28,0.07,-0.39,0.28,-0.16,-0.25
2.656,-0.28,0.07,-0.39,0.28,-0.16,-0.25
2.656,-0.28,0.07,-0.39,0.28,-0.16,-0.25
2.656,-0.28,0.07,-0.39,0.28,-0.16,-0.25
2.657,0.42,0.02,-1.01,0.28,-0.16,-0.25
2.657,0.39,-0.01,-0.95,0.28,-0.16,-0.25
2.657,0.4,-0.03,-0.92,0.28,-0.16,-0.25
2.657,0.4,-0.03,-0.92,0.25,-0.1,-0.25
2.658,0.4,-0.03,-0.92,0.19,-0.01,-0.27
2.66,0.4,-0.03,-0.92,0.14,0.08,-0.27
2.666,0.4,-0.03,-0.92,0.11,0.13,-0.27
2.667,0.47,-0.01,-1.19,0.11,0.13,-0.27
2.667,0.47,-0.01,-1.19,0.05,0.21,-0.27
2.667,0.47,-0.01,-1.19,0,0.28,-0.27
2.668,0.47,-0.01,-1.19,-0.05,0.35,-0.27
2.67,0.47,-0.01,-1.19,-0.08,0.38,-0.26
2.673,0.47,-0.01,-1.19,-0.12,0.43,-0.26
2.673,0.38,0,-1.34,-0.12,0.43,-0.26
2.674,0.38,0,-1.34,-0.16,0.47,-0.25
2.676,0.38,0,-1.34,-0.18,0.49,-0.24
2.678,0.38,0,-1.34,-0.21,0.52,-0.23
2.68,0.38,0,-1.34,-0.23,0.54,-0.22
2.695,0.38,0,-1.34,-0.24,0.55,-0.21
2.695,0.38,0,-1.34,-0.25,0.52,-0.18
2.696,0.38,0,-1.34,-0.25,0.52,-0.18
2.696,0.38,0,-1.34,-0.25,0.52,-0.18
2.696,0.38,0,-1.34,-0.25,0.52,-0.18
2.696,0.38,0,-1.34,-0.25,0.51,-0.18
2.696,0.38,0,-1.34,-0.24,0.51,-0.18
2.696,0.24,-0.27,-0.81,-0.24,0.51,-0.18
2.697,0.32,-0.25,-0.87,-0.24,0.51,-0.18
2.697,0.36,-0.24,-0.9,-0.24,0.51,-0.18
2.697,0.36,-0.24,-0.9,-0.24,0.48,-0.17
2.698,0.36,-0.24,-0.9,-0.23,0.48,-0.17
2.7,0.36,-0.24,-0.9,-0.22,0.48,-0.16
2.704,0.36,-0.24,-0.9,-0.22,0.47,-0.14
2.704,0.36,-0.48,-0.41,-0.22,0.47,-0.14
2.704,0.36,-0.48,-0.41,-0.2,0.47,-0.13
2.706,0.36,-0.48,-0.41,-0.19,0.46,-0.13
2.708,0.36,-0.48,-0.41,-0.17,0.44,-0.13
2.71,0.36,-0.48,-0.41,-0.14,0.41,-0.13
2.715,0.36,-0.48,-0.41,-0.1,0.38,-0.14
2.715,0.36,-0.48,-0.41,-0.08,0.36,-0.15
2.715,0.5,-0.59,-0.11,-0.08,0.36,-0.15
2.716,0.5,-0.59,-0.11,-0.04,0.33,-0.16
2.718,0.5,-0.59,-0.11,0,0.3,-0.17
2.72,0.5,-0.59,-0.11,0.03,0.29,-0.17
2.735,0.5,-0.59,-0.11,0.07,0.26,-0.18
2.736,0.5,-0.59,-0.11,0.23,0.16,-0.18
2.736,0.5,-0.59,-0.11,0.24,0.14,-0.19
2.736,0.5,-0.59,-0.11,0.24,0.14,-0.19
2.736,0.5,-0.59,-0.11,0.26,0.13,-0.19
2.736,0.5,-0.59,-0.11,0.27,0.13,-0.2
2.737,0.5,-0.59,-0.11,0.27,0.13,-0.2
2.737,0.43,-0.45,0.38,0.27,0.13,-0.2
2.737,0.47,-0.47,0.4,0.27,0.13,-0.2
2.737,0.49,-0.49,0.42,0.27,0.13,-0.2
2.737,0.49,-0.49,0.42,0.28,0.12,-0.21
2.738,0.49,-0.49,0.42,0.29,0.1,-0.23
2.74,0.49,-0.49,0.42,0.3,0.08,-0.25
2.743,0.49,-0.49,0.42,0.31,0.08,-0.26
2.744,0.49,-0.43,0.37,0.31,0.08,-0.26
2.744,0.49,-0.43,0.37,0.31,0.06,-0.27
2.746,0.49,-0.43,0.37,0.31,0.05,-0.28
2.75,0.49,-0.43,0.37,0.3,0.04,-0.28
2.75,0.49,-0.43,0.37,0.3,0.04,-0.28
2.753,0.49,-0.43,0.37,0.28,0.04,-0.28
2.753,0.3,-0.4,0.23,0.28,0.04,-0.28
2.754,0.3,-0.4,0.23,0.27,0.04,-0.26
2.757,0.3,-0.4,0.23,0.24,0.05,-0.24
2.758,0.3,-0.4,0.23,0.23,0.06,-0.23
2.76,0.3,-0.4,0.23,0.19,0.08,-0.2
2.776,0.3,-0.4,0.23,0.16,0.1,-0.18
2.777,0.3,-0.4,0.23,-0.02,0.26,-0.07
2.777,0.3,-0.4,0.23,-0.05,0.28,-0.05
2.777,0.3,-0.4,0.23,-0.07,0.3,-0.04
2.777,0.3,-0.4,0.23,-0.07,0.3,-0.04
2.777,0.3,-0.4,0.23,-0.07,0.3,-0.04
2.778,0.3,-0.4,0.23,-0.07,0.3,-0.04
2.778,-0.26,-0.51,-0.32,-0.07,0.3,-0.04
2.778,-0.24,-0.52,-0.31,-0.07,0.3,-0.04
2.778,-0.22,-0.52,-0.31,-0.07,0.3,-0.04
2.783,-0.22,-0.52,-0.31,-0.12,0.34,-0.02
2.784,-0.22,-0.52,-0.31,-0.18,0.38,-0.01
2.784,-0.22,-0.52,-0.31,-0.2,0.4,0
2.784,-0.22,-0.52,-0.31,-0.25,0.44,0.01
2.784,-0.22,-0.52,-0.31,-0.3,0.47,0.02
2.785,-0.34,-0.55,-0.51,-0.3,0.47,0.02
2.787,-0.34,-0.55,-0.51,-0.32,0.49,0.03
2.79,-0.34,-0.55,-0.51,-0.37,0.51,0.03
2.791,-0.34,-0.55,-0.51,-0.41,0.53,0.04
2.793,-0.34,-0.55,-0.51,-0.44,0.55,0.04
2.793,-0.31,-0.53,-0.58,-0.44,0.55,0.04
2.794,-0.31,-0.53,-0.58,-0.45,0.55,0.04
2.796,-0.31,-0.53,-0.58,-0.47,0.56,0.03
2.798,-0.31,-0.53,-0.58,-0.5,0.58,0.03
2.8,-0.31,-0.53,-0.58,-0.52,0.59,0.03
2.815,-0.31,-0.53,-0.58,-0.52,0.58,0.02
2.815,-0.31,-0.53,-0.58,-0.49,0.5,-0.01
2.816,-0.31,-0.53,-0.58,-0.49,0.5,-0.01
2.816,-0.31,-0.53,-0.58,-0.49,0.49,-0.01
2.816,-0.31,-0.53,-0.58,-0.49,0.49,-0.01
2.816,-0.31,-0.53,-0.58,-0.48,0.47,-0.01
2.816,-0.31,-0.53,-0.58,-0.47,0.46,-0.02
2.816,-0.08,-0.6,0.23,-0.47,0.46,-0.02
2.816,-0.03,-0.55,0.13,-0.47,0.46,-0.02
2.817,-0.03,-0.55,0.13,-0.45,0.45,-0.02
2.818,-0.03,-0.55,0.13,-0.43,0.42,-0.03
2.82,-0.03,-0.55,0.13,-0.4,0.39,-0.03
2.823,-0.03,-0.55,0.13,-0.37,0.36,-0.04
2.823,0.01,-0.57,0.39,-0.37,0.36,-0.04
2.824,0.01,-0.57,0.39,-0.35,0.35,-0.04
2.826,0.01,-0.57,0.39,-0.32,0.32,-0.03
2.828,0.01,-0.57,0.39,-0.29,0.3,-0.03
2.831,0.01,-0.57,0.39,-0.27,0.28,-0.03
2.838,0.01,-0.57,0.39,-0.25,0.27,-0.03
2.839,-0.01,-0.59,0.61,-0.25,0.27,-0.03
2.839,-0.01,-0.59,0.61,-0.22,0.25,-0.02
2.839,-0.01,-0.59,0.61,-0.2,0.24,-0.02
2.839,-0.01,-0.59,0.61,-0.18,0.23,-0.01
2.84,-0.01,-0.59,0.61,-0.17,0.21,-0.01
2.855,-0.01,-0.59,0.61,-0.15,0.21,-0.01
2.855,-0.01,-0.59,0.61,-0.1,0.19,-0.01
2.856,-0.01,-0.59,0.61,-0.1,0.19,-0.01
2.856,-0.01,-0.59,0.61,-0.1,0.19,-0.01
2.856,-0.01,-0.59,0.61,-0.09,0.19,-0.01
2.856,-0.01,-0.59,0.61,-0.09,0.19,-0.01
2.856,-0.01,-0.59,0.61,-0.09,0.19,-0.01
2.857,-0.03,-0.66,0.8,-0.09,0.19,-0.01
2.857,-0.01,-0.64,0.77,-0.09,0.19,-0.01
2.857,-0.01,-0.64,0.77,-0.09,0.2,-0.01
2.858,-0.01,-0.64,0.77,-0.09,0.21,-0.02
2.86,-0.01,-0.64,0.77,-0.09,0.22,-0.02
2.867,-0.01,-0.64,0.77,-0.09,0.25,-0.03
2.868,0.06,-0.7,0.68,-0.09,0.25,-0.03
2.868,0.06,-0.7,0.68,-0.1,0.27,-0.04
2.868,0.06,-0.7,0.68,-0.11,0.28,-0.04
2.868,0.06,-0.7,0.68,-0.11,0.28,-0.04
