time,ax,ay,az,wx,wy,wz
0.009,0,-0.01,0.19,-0.02,-0.04,0
0.009,0,-0.01,0.19,0,-0.02,0
0.009,0,-0.01,0.19,0,-0.01,0
0.01,0,-0.01,0.19,0,-0.01,0
0.01,0,-0.01,0.19,0,-0.01,0
0.01,0,-0.01,0.19,0,0,0
0.01,0,-0.01,0.19,0,0,0
0.01,0.02,0,0.22,0,0,0
0.01,0.02,0,0.22,0,0,0
0.01,0.02,0,0.22,0,0,0
0.013,0.02,0,0.22,0,0,0
0.013,0.02,0,0.22,0.01,0.01,0
0.017,0.02,0,0.22,0.01,0.01,0
0.017,0.01,0,0.26,0.01,0.01,0
0.017,0.01,0,0.26,0.01,0.02,0
0.02,0.01,0,0.26,0.01,0.02,0
0.022,0.01,0,0.26,0.01,0.02,0
0.024,0.01,0,0.26,0.01,0.03,0
0.036,0.01,0,0.26,0.02,0.03,0
0.036,0,-0.02,0.18,0.02,0.03,0
0.036,0,-0.02,0.18,0.01,0.03,0
0.037,0,-0.02,0.18,0.01,0.03,0
0.037,0,-0.02,0.18,0.01,0.03,0
0.037,0,-0.02,0.18,0.02,0.03,0
0.05,0,-0.02,0.18,0.02,0.02,0
0.05,0,-0.02,0.18,0.01,0.01,0
0.05,0,-0.02,0.18,0.01,0.01,0
0.051,0,-0.02,0.18,0.01,0.01,0
0.051,0,-0.02,0.18,0.01,0.01,0
0.051,0,-0.02,0.18,0.01,0.01,0
0.051,0,-0.02,0.18,0,0.01,0
0.051,0,-0.02,0.18,0,0.01,0
0.052,0.04,0.01,0.02,0,0.01,0
0.052,0.04,0,0.02,0,0.01,0
0.052,0.04,0,0.02,0,0.01,0
0.053,0.04,0,0.02,0.01,0.01,0
0.053,0.04,0,0.02,0.01,0,0
0.057,0.04,0,0.02,0,0,0
0.057,0.03,0.01,0.06,0,0,0
0.057,0.03,0.01,0.06,0,0,0
0.059,0.03,0.01,0.06,-0.01,-0.01,0
0.062,0.03,0.01,0.06,0,-0.01,0
0.063,0.03,0.01,0.06,0,-0.01,0
0.067,0.03,0.01,0.06,0,-0.02,0
0.067,0.03,-0.01,0.12,0,-0.02,0
0.067,0.03,-0.01,0.12,-0.01,-0.01,0
0.07,0.03,-0.01,0.12,-0.01,-0.01,0
0.071,0.03,-0.01,0.12,-0.01,-0.02,0
0.073,0.03,-0.01,0.12,-0.01,-0.02,0
0.088,0.03,-0.01,0.12,-0.01,-0.02,0
0.089,0.03,-0.01,0.12,0,-0.02,0
0.089,0.03,-0.01,0.12,-0.01,-0.02,0
0.089,0.03,-0.01,0.12,-0.01,-0.02,0
0.089,0.03,-0.01,0.12,-0.01,-0.02,0
0.09,0.03,-0.01,0.12,-0.01,-0.01,0
0.09,0.03,-0.01,0.12,-0.01,-0.01,0
0.09,0.04,-0.01,0.13,-0.01,-0.01,0
0.09,0.04,0,0.13,-0.01,-0.01,0
0.091,0.04,0,0.13,-0.01,-0.01,0
0.091,0.04,0,0.13,0,-0.01,0
0.096,0.04,0,0.13,0,-0.01,0
0.098,0.04,0,0.13,0,0,0
0.099,0.01,-0.01,0.21,0,0,0
0.099,0.01,-0.01,0.21,0,-0.01,0
0.1,0.01,-0.01,0.21,0,0,0
0.102,0.01,-0.01,0.21,0,0,0
0.104,0.01,-0.01,0.21,0,0,0
0.106,0.01,-0.01,0.21,0.01,0,0
0.107,0,0,0.25,0.01,0,0
0.108,0,0,0.25,0,0,0
0.11,0,0,0.25,0,0.01,0
0.119,0,0,0.25,0.01,0.01,0
0.119,0,0,0.25,0,0.01,0
0.128,0,0,0.25,0.01,0.01,0
0.129,0,0,0.25,0.01,0.01,0
0.129,0,0,0.25,0.01,0.01,0
0.129,0,0,0.25,0.01,0.01,0
0.13,0,0,0.25,0.01,0.01,0
0.13,0,0,0.25,0.01,0.01,0
0.13,0,0,0.25,0.01,0.01,0
0.13,-0.02,0,0.21,0.01,0.01,0
0.13,-0.01,0,0.21,0.01,0.01,0
0.131,-0.01,0,0.21,0.01,0.01,0
0.131,-0.01,0,0.21,0.01,0.01,0
0.132,-0.01,0,0.21,0,0.01,0
0.134,-0.01,0,0.21,0,0.01,0
0.137,-0.01,0,0.21,0.01,0.01,0
0.138,-0.04,0,0.23,0.01,0.01,0
0.138,-0.04,0,0.23,0.01,0.01,0
0.139,-0.04,0,0.23,0,0,0
0.147,-0.04,0,0.23,0,0,0
0.147,-0.04,0,0.23,0,0,0
0.148,-0.04,0,0.23,0,0,0
0.148,-0.02,-0.02,0.26,0,0,0
0.148,-0.02,-0.02,0.26,0,0,0
0.152,-0.02,-0.02,0.26,0,0,0
0.153,-0.02,-0.02,0.26,0,0,0
0.153,-0.02,-0.02,0.26,0,-0.01,0
0.169,-0.02,-0.02,0.26,0,-0.01,0
0.169,-0.02,-0.02,0.26,-0.01,-0.01,0
0.17,-0.02,-0.02,0.26,0,-0.01,0
0.17,-0.02,-0.02,0.26,0,-0.01,0
0.17,-0.02,-0.02,0.26,0,-0.01,0
0.17,-0.02,-0.02,0.26,0,-0.01,0
0.17,-0.02,-0.02,0.26,0,-0.01,0
0.171,-0.01,-0.01,0.24,0,-0.01,0
0.171,-0.01,-0.01,0.24,0,-0.01,0
0.171,-0.01,-0.01,0.24,0,-0.01,0
0.172,-0.01,-0.01,0.24,0,-0.01,0
0.174,-0.01,-0.01,0.24,-0.01,-0.01,0
0.178,-0.01,-0.01,0.24,-0.01,-0.01,0
0.178,0.03,-0.01,0.23,-0.01,-0.01,0
0.178,0.03,-0.01,0.23,-0.01,0,0
0.179,0.03,-0.01,0.23,0,-0.01,0
0.182,0.03,-0.01,0.23,0,-0.01,0
0.183,0.03,-0.01,0.23,0,0,0
0.187,0.03,-0.01,0.23,0,0,0
0.187,0.04,-0.02,0.25,0,0,0
0.188,0.04,-0.02,0.25,0,0,0
0.189,0.04,-0.02,0.25,0,0,0
0.191,0.04,-0.02,0.25,0,0,0
0.194,0.04,-0.02,0.25,0,0,0
0.208,0.04,-0.02,0.25,0,0,0
0.209,0.04,-0.02,0.25,0,0,0
0.209,0.04,-0.02,0.25,0,0,0
0.209,0.04,-0.02,0.25,0,0,0
0.209,0.04,-0.02,0.25,0,0.01,0
0.21,0.04,-0.02,0.25,0,0.01,0
0.21,0.04,-0.02,0.25,0,0.01,0
0.21,0.01,0.01,0.23,0,0.01,0
0.21,0.01,0.01,0.23,0,0.01,0
0.21,0.01,0.01,0.23,0.01,0,0
0.219,0.01,0.01,0.23,0,0.01,0
0.22,0.01,0.01,0.23,0,0.01,0
0.22,0.01,0.01,0.23,0.01,0.01,0
0.22,-0.01,0,0.22,0.01,0.01,0
0.221,-0.01,0,0.22,0,0.01,0
0.221,-0.01,0,0.22,0,0.01,0
0.222,-0.01,0,0.22,0,0,0
0.223,-0.01,0,0.22,0,0.01,0
0.226,-0.01,0,0.22,0,0.01,0
0.227,0.01,0.01,0.21,0,0.01,0
0.228,0.01,0.01,0.21,0.01,0.01,0
0.23,0.01,0.01,0.21,0,0,0
0.232,0.01,0.01,0.21,0.01,0,0
0.234,0.01,0.01,0.21,0,0,0
0.25,0.01,0.01,0.21,0,0,0
0.25,0.01,0.01,0.21,0,0,0
0.251,0.01,0.01,0.21,0,0,0
0.251,0.01,0.01,0.21,0,0,0
0.251,0.01,0.01,0.21,0,0,0
0.251,0.01,0.01,0.21,0,0,0
0.251,0.01,0.01,0.21,0,0,0
0.252,0.01,0.01,0.21,0,0,0
0.252,-0.03,-0.01,0.19,0,0,0
0.252,-0.03,-0.01,0.19,0,0,0
0.252,-0.03,-0.01,0.19,0,0,0
0.253,-0.03,-0.01,0.19,0,-0.01,0
0.254,-0.03,-0.01,0.19,0,0,0
0.26,-0.03,-0.01,0.19,0,0,0
0.26,-0.03,-0.01,0.19,0,-0.01,0
0.26,-0.03,-0.01,0.19,0,-0.01,0
0.26,-0.02,-0.03,0.22,0,-0.01,0
0.262,-0.02,-0.03,0.22,0,0,0
0.263,-0.02,-0.03,0.22,0,-0.01,0
0.266,-0.02,-0.03,0.22,0,-0.01,0
0.267,-0.01,-0.02,0.21,0,-0.01,0
0.268,-0.01,-0.02,0.21,0,0,0
0.269,-0.01,-0.02,0.21,0,-0.01,0
0.271,-0.01,-0.02,0.21,0,0,0
0.274,-0.01,-0.02,0.21,0,0,0
0.29,-0.01,-0.02,0.21,0,-0.01,0
0.29,-0.01,-0.02,0.21,0,0,0
0.29,-0.01,-0.02,0.21,0,0,0
0.29,-0.01,-0.02,0.21,0,0,0
0.291,-0.01,-0.02,0.21,0,0,0
0.291,-0.01,-0.02,0.21,0,0,0
0.291,-0.01,-0.02,0.21,0,0,0
0.291,-0.01,-0.02,0.21,0,0,0
0.292,0,-0.03,0.22,0,0,0
0.292,0,-0.03,0.22,0,0,0
0.292,0,-0.03,0.22,0,0,0
0.292,0,-0.03,0.22,0,0,0
0.295,0,-0.03,0.22,0,0,0
0.297,0,-0.03,0.22,0,0,0
0.298,0,-0.03,0.22,0,0,0
0.298,0.02,0,0.23,0,0,0
0.3,0.02,0,0.23,0,0.01,0
0.301,0.02,0,0.23,0,0,0
0.303,0.02,0,0.23,0,0,0
0.313,0.02,0,0.23,0,0,0
0.314,0.01,0.01,0.23,0,0,0
0.314,0.01,0.01,0.23,0,0,0
0.314,0.01,0.01,0.23,0,0.01,0
0.319,0.01,0.01,0.23,0,0,0
0.32,0.01,0.01,0.23,0,0,0
0.335,0.01,0.01,0.23,0,0.01,0
0.336,0.01,0.01,0.23,0,0,0
0.336,0.01,0.01,0.23,0,0,0
0.336,0.01,0.01,0.23,0,0,0
0.336,0.01,0.01,0.23,0,0,0
0.337,0.01,0.01,0.23,0,0,0
0.337,0.01,0.01,0.23,0.01,0,0
0.337,0.01,0.01,0.23,0,0,0
0.337,-0.01,-0.01,0.19,0,0,0
0.337,-0.01,-0.01,0.19,0,0,0
0.337,-0.01,-0.01,0.19,0,0,0
0.338,-0.01,-0.01,0.19,0.01,0,0
0.338,-0.01,-0.01,0.19,0,0,0
0.338,-0.03,-0.02,0.22,0,0,0
0.338,-0.03,-0.02,0.22,0,0,0
0.34,-0.03,-0.02,0.22,0,0,0
0.342,-0.03,-0.02,0.22,0,0,0
0.344,-0.03,-0.02,0.22,0,0,0
0.346,-0.03,-0.02,0.22,0,0,0
0.347,-0.02,-0.02,0.24,0,0,0
0.348,-0.02,-0.02,0.24,0,0,0
0.35,-0.02,-0.02,0.24,0,0,0
0.352,-0.02,-0.02,0.24,0,0,0
0.354,-0.02,-0.02,0.24,0,0,0
0.369,-0.02,-0.02,0.24,0,0,0
0.369,-0.02,-0.02,0.24,0,0,0
0.37,-0.02,-0.02,0.24,0,0,0
0.37,-0.02,-0.02,0.24,0,0,0
0.37,-0.02,-0.02,0.24,0,0,0
0.37,-0.02,-0.02,0.24,0,0,0
0.37,-0.02,-0.02,0.24,0,0,0
0.371,0.03,-0.02,0.07,0,0,0
0.371,0.03,-0.02,0.07,0,0,0
0.371,0.03,-0.02,0.07,0,0,0
0.372,0.03,-0.02,0.07,0,0,0
0.373,0.03,-0.02,0.07,0,0,0
0.377,0.03,-0.02,0.07,0,-0.01,0
0.377,0,-0.06,0.08,0,-0.01,0
0.377,0,-0.06,0.08,0,0,0
0.38,0,-0.06,0.08,0,0,0
0.381,0,-0.06,0.08,-0.01,0,0
0.383,0,-0.06,0.08,0,0,0
0.387,0,-0.06,0.08,0.01,-0.01,0
0.387,-0.02,-0.02,0.25,0.01,-0.01,0
0.387,-0.02,-0.02,0.25,0,-0.01,0
0.389,-0.02,-0.02,0.25,0,0,0
0.391,-0.02,-0.02,0.25,0,0,0
0.393,-0.02,-0.02,0.25,0,0,0
0.409,-0.02,-0.02,0.25,0,0,0
0.41,-0.02,-0.02,0.25,0,0,0
0.41,-0.02,-0.02,0.25,0,0,0
0.41,-0.02,-0.02,0.25,0,0,0
0.41,-0.02,-0.02,0.25,0,0,0
0.411,-0.02,-0.02,0.25,0,0,0
0.411,-0.02,-0.02,0.25,0,0,0
0.411,0.01,0.03,0.35,0,0,0
0.411,0.01,0.03,0.35,0,0,0
0.411,0.01,0.03,0.35,0,0,0
0.412,0.01,0.03,0.35,0,0,0
0.412,0.01,0.03,0.35,0,0,0
0.416,0.01,0.03,0.35,0,0,0
0.417,0.01,0.03,0.35,0,0,0
0.417,0.03,0.03,0.13,0,0,0
0.417,0.03,0.03,0.13,0,0,0
0.42,0.03,0.03,0.13,0,0,0
0.421,0.03,0.03,0.13,0,0,0
0.424,0.03,0.03,0.13,0,0,0
0.426,0.03,0.03,0.13,0,0,0
0.427,0,-0.01,0.12,0,0,0
0.427,0,-0.01,0.12,0,0,0
0.429,0,-0.01,0.12,0,0.01,0
0.432,0,-0.01,0.12,0,0,0
0.434,0,-0.01,0.12,0,0,0
0.448,0,-0.01,0.12,0,0,0
0.449,0,-0.01,0.12,0,0,0
0.449,0,-0.01,0.12,0,0,0
0.449,0,-0.01,0.12,0,0,0
0.449,0,-0.01,0.12,0,0,0
0.449,0,-0.01,0.12,0,0,0
0.45,0,-0.01,0.12,0,0,0
0.45,-0.02,-0.03,0.17,0,0,0
0.45,-0.02,-0.03,0.17,0,0,0
0.45,-0.02,-0.03,0.17,0,0,0
0.452,-0.02,-0.03,0.17,0,0,0
0.454,-0.02,-0.03,0.17,0,0,0
0.457,-0.02,-0.03,0.17,0,0,0
0.457,-0.01,0.01,0.15,0,0,0
0.457,-0.01,0.01,0.15,0,0,0
0.46,-0.01,0.01,0.15,0,0,0
0.462,-0.01,0.01,0.15,0,0,0
0.464,-0.01,0.01,0.15,0,0,0
0.466,-0.01,0.01,0.15,0,0,0
0.467,0,0,0.22,0,0,0
0.468,0,0,0.22,0,0,0
0.476,0,0,0.22,0,0,0
0.476,0,0,0.22,0,0,0
0.477,0,0,0.22,0,0,0
0.489,0,0,0.22,0,0,0
0.49,0,0,0.22,0,0,0
0.49,0,0,0.22,0,0,0
0.49,0,0,0.22,0,0,0
0.49,0,0,0.22,0,0,0
0.491,0,0,0.22,0,0,0
0.491,0,0,0.22,0,0,0
0.491,0.02,-0.01,0.25,0,0,0
0.491,0.02,-0.01,0.25,0,0,0
0.491,0.02,-0.01,0.25,0.01,0,0
0.492,0.02,-0.01,0.25,0,0,0
0.493,0.02,-0.01,0.25,0,0,0
0.498,0.02,-0.01,0.25,0,0,0
0.499,0.02,-0.01,0.25,0,0,0
0.499,0.01,0,0.25,0,0,0
0.499,0.01,0,0.25,0,0,0
0.502,0.01,0,0.25,0,0,0
0.504,0.01,0,0.25,0,0,0
0.506,0.01,0,0.25,0,0,0
0.507,0.02,0.01,0.21,0,0,0
0.507,0.02,0.01,0.21,0,0,0
0.509,0.02,0.01,0.21,0,0,0
0.515,0.02,0.01,0.21,0,0,0
0.516,0.02,0.01,0.21,0,0,0
0.53,0.02,0.01,0.21,0,0,0
0.531,0.02,0.01,0.21,0,0,0
0.531,0.02,0.01,0.21,0,0,0
0.531,0.02,0.01,0.21,0,0,0
0.531,0.02,0.01,0.21,0,0,0
0.531,0.02,0.01,0.21,0,0,0
0.532,0.02,0.01,0.21,0,0,0
0.532,0.02,0.01,0.21,0,0,0
0.532,0,-0.03,0.22,0,0,0
0.532,0,-0.03,0.22,0,0,0
0.532,0,-0.03,0.22,0,0,0
0.533,0,-0.03,0.22,0,0,0
0.534,0,-0.03,0.22,0,0,0
0.537,0,-0.03,0.22,0,0,0
0.538,0.01,-0.06,0.17,0,0,0
0.538,0.01,-0.06,0.17,0,0,0
0.539,0.01,-0.06,0.17,0,0,0
0.541,0.01,-0.06,0.17,0,0,0
0.544,0.01,-0.06,0.17,0,0,0
0.547,0.01,-0.06,0.17,0,0,0
0.548,0.01,-0.06,0.17,0,0,0
0.548,-0.01,-0.03,0.2,0,0,0
0.55,-0.01,-0.03,0.2,0,0,0
0.551,-0.01,-0.03,0.2,0,0,0
0.553,-0.01,-0.03,0.2,0,0,0
0.569,-0.01,-0.03,0.2,0,0,0
0.569,-0.01,-0.03,0.2,0,0,0
0.569,-0.01,-0.03,0.2,0,0,0
0.57,-0.01,-0.03,0.2,0,0,0
0.57,-0.01,-0.03,0.2,0,0,0
0.57,-0.01,-0.03,0.2,0,0.01,0
0.57,-0.01,-0.03,0.2,0,0,0
0.57,-0.01,0,0.24,0,0,0
0.571,-0.01,0,0.24,0,0,0
0.571,-0.01,0,0.24,0,0,0
0.572,-0.01,0,0.24,0.01,0,0
0.574,-0.01,0,0.24,0,0,0
0.577,-0.01,0,0.24,0,0.01,0
0.577,-0.01,0.01,0.18,0,0.01,0
0.578,-0.01,0.01,0.18,0,0,0
0.579,-0.01,0.01,0.18,0,0,0
0.582,-0.01,0.01,0.18,0,0,0
0.584,-0.01,0.01,0.18,0,0,0
0.587,-0.01,0.01,0.18,0,0,0
0.587,-0.01,0,0.19,0,0,0
0.588,-0.01,0,0.19,0,0,0
0.59,-0.01,0,0.19,0,0,0
0.591,-0.01,0,0.19,0,0,0
0.594,-0.01,0,0.19,0,0,0
0.609,-0.01,0,0.19,0,0,0
0.61,-0.01,0,0.19,0,0,0
0.61,-0.01,0,0.19,0,0,0
0.61,-0.01,0,0.19,0,0,0
0.611,-0.01,0,0.19,0,0,0
0.611,-0.01,0,0.19,0,0,0
0.611,-0.01,0,0.19,0,0,0
0.611,0.02,0.02,0.22,0,0,0
0.612,0.02,0.02,0.22,0,0,0
0.612,0.02,0.02,0.22,0,0,0
0.612,0.02,0.02,0.22,0,0,0
0.612,0.02,0.02,0.22,0,0,0
0.617,0.02,0.02,0.22,0,0,0
0.618,0.02,0.02,0.22,0,0,0
0.618,0.01,-0.01,0.2,0,0,0
0.623,0.01,-0.01,0.2,0,0,0
0.623,0.01,-0.01,0.2,0,0,0
0.626,0.01,-0.01,0.2,0,0,0
0.626,0.01,-0.01,0.2,0,0,0
0.627,0.01,-0.01,0.2,0,0,0
0.628,0,-0.05,0.18,0,0,0
0.629,0,-0.05,0.18,0,0,0
0.63,0,-0.05,0.18,0,0,0
0.634,0,-0.05,0.18,0,0,0
0.645,0,-0.05,0.18,0,0,0
0.654,0,-0.05,0.18,0,0,0
0.654,0,-0.05,0.18,0,0,0
0.655,0,-0.05,0.18,0,0,0
0.655,0,-0.05,0.18,0,0,0
0.655,0,-0.05,0.18,0,0,0
0.655,0,-0.05,0.18,0,0,0
0.655,0,-0.05,0.18,0,0,0
0.655,0,-0.05,0.18,0.01,0,0
0.655,0,-0.05,0.18,0,0,0
0.656,-0.02,-0.03,0.22,0,0,0
0.656,-0.02,-0.03,0.22,0,0,0
0.656,-0.02,-0.03,0.22,0,0,0
0.656,-0.02,-0.03,0.22,0,0,0
0.657,-0.02,-0.03,0.22,0,0,0
0.657,-0.02,-0.03,0.22,0,0.01,0
0.658,0,0.01,0.21,0,0.01,0
0.659,0,0.01,0.21,0,0,0
0.661,0,0.01,0.21,0,0.01,0
0.664,0,0.01,0.21,0,0,0
0.666,0,0.01,0.21,0,0.01,0
0.666,0,-0.01,0.2,0,0.01,0
0.667,0,-0.01,0.2,0,0.01,0
0.669,0,-0.01,0.2,0,0,0
0.672,0,-0.01,0.2,0,0.01,0
0.673,0,-0.01,0.2,0,0.01,0
0.69,0,-0.01,0.2,0,0,0
0.69,0,-0.01,0.2,0,0,0
0.69,0,-0.01,0.2,0,0,0
0.691,0,-0.01,0.2,0,0,0
0.691,0,-0.01,0.2,0,0,0
0.691,0,-0.01,0.2,0,0,0
0.691,0,-0.01,0.2,0,0,0
0.691,0,-0.01,0.2,0,0,0
0.692,-0.01,-0.01,0.2,0,0,0
0.692,-0.01,-0.01,0.2,0,0,0
0.692,-0.01,-0.01,0.2,0,0,0
0.694,-0.01,-0.01,0.2,0,0,0
0.7,-0.01,-0.01,0.2,0,0,0
0.7,-0.01,-0.01,0.2,0,0,0
0.7,0.01,0.01,0.17,0,0,0
0.701,0.01,0.01,0.17,0,0,0
0.702,0.01,0.01,0.17,0,0,0
0.704,0.01,0.01,0.17,0,0,0
0.707,0.01,0.01,0.17,0,-0.01,0
0.707,0.01,-0.01,0.17,0,-0.01,0
0.708,0.01,-0.01,0.17,0,0,0
0.709,0.01,-0.01,0.17,0,0,0
0.713,0.01,-0.01,0.17,0,0,0
0.719,0.01,-0.01,0.17,0,0,0
0.731,0.01,-0.01,0.17,0,0,0
0.731,0.01,-0.01,0.17,0,-0.01,0
0.731,0.01,-0.01,0.17,0,-0.01,0
0.732,0.01,-0.01,0.17,0,-0.01,0
0.732,0.01,-0.01,0.17,0,-0.01,0
0.732,0.01,-0.01,0.17,0,0,0
0.732,0.01,-0.01,0.17,0,0,0
0.732,0.01,-0.01,0.17,0,0,0
0.732,-0.03,-0.02,0.22,0,0,0
0.733,-0.03,-0.02,0.22,0,0,0
0.733,-0.03,-0.02,0.22,0,0,0
0.734,-0.03,-0.02,0.22,0,0,0
0.737,-0.03,-0.02,0.22,0,0,0
0.737,-0.03,-0.02,0.22,0,0,0
0.738,-0.03,-0.02,0.22,0,0,0
0.74,-0.03,-0.02,0.22,0,0,0
0.742,-0.03,-0.02,0.22,0,0,0
0.744,-0.03,-0.02,0.22,0,0,0
0.747,-0.03,-0.02,0.22,0,0,0
0.75,-0.02,0,0.2,0,0,0
0.751,-0.02,0,0.2,0,0,0
0.751,-0.02,0,0.2,0,0,0
0.752,-0.02,0,0.2,0,0,0
0.753,-0.02,0,0.2,0,0,0
0.77,-0.02,0,0.2,0,0,0
0.77,-0.02,0,0.2,0,0.01,0
0.771,-0.02,0,0.2,0,0,0
0.772,-0.02,0,0.2,0,0,0
0.772,-0.02,0,0.2,0,0,0
0.772,-0.02,0,0.2,0,0,0
0.772,-0.02,0,0.2,0,0,0
0.773,-0.02,0,0.2,0,0,0
0.773,0.03,0,0.24,0,0,0
0.774,0.03,0,0.24,0,0,0
0.774,0.03,0,0.24,0,0,0
0.774,0.03,0,0.24,0,0.01,0
0.774,0.03,0,0.24,0,0.01,0
0.778,0.03,0,0.24,0,0,0
0.778,0.03,0,0.24,0,0,0
0.779,0.01,0,0.16,0,0,0
0.781,0.01,0,0.16,0,0.01,0
0.785,0.01,0,0.16,0,0,0
0.785,0.01,0,0.16,0,0,0
0.787,0.01,0,0.16,0,0,0
0.787,0.01,-0.01,0.18,0,0,0
0.788,0.01,-0.01,0.18,0,0,0
0.79,0.01,-0.01,0.18,0,0,0
0.791,0.01,-0.01,0.18,0,0,0
0.793,0.01,-0.01,0.18,0,0,0
0.809,0.01,-0.01,0.18,0,0,0
0.82,0.01,-0.01,0.18,0,0,0
0.82,0.01,-0.01,0.18,0,0,0
0.82,0.01,-0.01,0.18,0,0,0
0.821,0.01,-0.01,0.18,0,0,0
0.821,0.01,-0.01,0.18,0,0,0
0.821,0.01,-0.01,0.18,0,-0.01,0
0.821,0.01,-0.02,0.23,0,-0.01,0
0.822,0.01,-0.02,0.23,0,-0.01,0
0.822,0.01,-0.02,0.23,0,-0.01,0
0.822,0.01,-0.02,0.23,0,0,0
0.823,0.01,-0.02,0.23,0,0,0
0.823,0.01,-0.02,0.23,0,0,0
0.823,0.01,-0.02,0.23,0,0,0
0.823,0.01,-0.03,0.2,0,0,0
0.824,0.01,-0.03,0.2,0,-0.01,0
0.824,0.01,-0.03,0.2,0,-0.01,0
0.824,0.01,-0.03,0.2,0,-0.01,0
0.829,0.01,-0.03,0.2,0,-0.01,0
0.83,0.04,-0.02,0.21,0,-0.01,0
0.833,0.04,-0.02,0.21,0,0,0
0.833,0.04,-0.02,0.21,0,-0.01,0
0.833,0.04,-0.02,0.21,0,-0.01,0
0.833,0.04,-0.02,0.21,0,0,0
0.85,0.04,-0.02,0.21,0,0,0
0.85,0.04,-0.02,0.21,0,0,0
0.851,0.04,-0.02,0.21,0,0,0
0.851,0.04,-0.02,0.21,0,0,0
0.851,0.04,-0.02,0.21,0,0,0
0.851,0.04,-0.02,0.21,0,0,0
0.851,0.04,-0.02,0.21,0,0,0
0.851,0.04,-0.02,0.21,0,0,0
0.852,0.04,-0.02,0.21,0,0,0
0.852,0.04,-0.02,0.21,0.01,0,0
0.852,0.04,-0.02,0.21,0,0,0
0.854,0.04,-0.02,0.21,0,0,0
0.857,0.04,-0.02,0.21,0,0,0
0.857,0.03,-0.02,0.24,0,0,0
0.857,0.03,-0.02,0.24,0,0,0
0.859,0.03,-0.02,0.24,0,0,0
0.862,0.03,-0.02,0.24,0,0,0
0.863,0.03,-0.02,0.24,0,0,0
0.868,0.03,-0.02,0.24,0,0.01,0
0.868,0.03,-0.02,0.24,0,0.01,0
0.868,0.02,0,0.18,0,0.01,0
0.87,0.02,0,0.18,0,0,0
0.872,0.02,0,0.18,0,0.01,0
0.873,0.02,0,0.18,0,0,0
0.889,0.02,0,0.18,0,0,0
0.89,0.02,0,0.18,0,0,0
0.89,0.02,0,0.18,0,0,0
0.89,0.02,0,0.18,0,0,0
0.891,0.02,0,0.18,0,0,0
0.891,0.02,0,0.18,0,0,0
0.891,0.02,0,0.18,0,0,0
0.891,0.02,0,0.18,0,0,0
0.891,0,0,0.21,0,0,0
0.892,0,0,0.21,0,0,0
0.892,0,0,0.21,0,0,0
0.892,0,0,0.21,0,0,0
0.894,0,0,0.21,0,0,0
0.898,0,0,0.21,0,0,0
0.898,0,0,0.21,0,0,0
0.902,-0.02,-0.03,0.16,0,0,0
0.902,-0.02,-0.03,0.16,0,0,0
0.902,-0.02,-0.03,0.16,0,0,0
0.904,-0.02,-0.03,0.16,0,0,0
0.906,-0.02,-0.03,0.16,0,0,0
0.907,-0.02,-0.03,0.16,0,0,0
0.907,-0.02,-0.03,0.16,0,0,0
0.909,-0.02,-0.03,0.16,0,-0.01,0
0.912,-0.02,-0.03,0.16,0,-0.01,0
0.922,-0.02,-0.03,0.16,0,-0.01,0
0.934,-0.02,-0.03,0.16,0,0,0
0.935,-0.02,-0.03,0.16,0,-0.01,0
0.935,-0.02,-0.03,0.16,0,-0.01,0
0.936,-0.02,-0.03,0.16,0,-0.01,0
0.936,-0.02,-0.03,0.16,0,-0.01,0
0.936,-0.02,-0.03,0.16,0,0,0
0.936,-0.02,-0.03,0.16,0,0,0
0.936,-0.02,-0.03,0.16,0,0,0
0.936,-0.02,-0.03,0.16,0,-0.01,0
0.936,0.02,-0.01,0.23,0,-0.01,0
0.936,0.01,-0.01,0.23,0,-0.01,0
0.937,0.01,-0.01,0.23,0,0,0
0.937,0.01,-0.01,0.23,0,0,0
0.937,0.01,-0.01,0.23,0,0,0
0.937,0.02,0,0.2,0,0,0
0.939,0.02,0,0.2,0,0,0
0.941,0.02,0,0.2,0,0,0
0.944,0.02,0,0.2,0,0,0
0.947,0.02,0,0.2,0,0.01,0
0.947,0.02,-0.01,0.18,0,0.01,0
0.948,0.02,-0.01,0.18,0,0,0
0.951,0.02,-0.01,0.18,0,0,0
0.951,0.02,-0.01,0.18,0,0,0
0.953,0.02,-0.01,0.18,0,0,0
0.969,0.02,-0.01,0.18,0,0,0
0.97,0.02,-0.01,0.18,0,0,0
0.97,0.02,-0.01,0.18,0,0,0
0.97,0.02,-0.01,0.18,0,0,0
0.979,0.02,-0.01,0.18,0,0,0
0.98,0.02,-0.01,0.18,0,0,0
0.98,0.02,-0.01,0.18,0,0,0
0.981,0.01,-0.03,0.2,0,0,0
0.981,0.01,-0.03,0.2,0,0,0
0.981,0.01,-0.03,0.2,0,0,0
0.981,0.01,-0.03,0.2,0,0,0
0.982,0.01,-0.03,0.2,0,0,0
0.982,0.01,-0.03,0.2,0,0,0
0.982,0.01,-0.03,0.2,0,0,0
0.983,-0.01,-0.04,0.2,0,0,0
0.983,-0.01,-0.04,0.2,0,0,0
0.983,-0.01,-0.04,0.2,0,0,0
0.983,-0.01,-0.04,0.2,0,0,0
0.985,-0.01,-0.04,0.2,0,0,0
0.987,-0.01,-0.04,0.2,0,0,0
0.987,0,-0.04,0.18,0,0,0
0.988,0,-0.04,0.18,0,0,0
0.989,0,-0.04,0.18,0,0,0
0.991,0,-0.04,0.18,0,0,0
0.993,0,-0.04,0.18,0,0,0
1.009,0,-0.04,0.18,0,0,0
1.01,0,-0.04,0.18,0,0,0
1.01,0,-0.04,0.18,0,0,0
1.01,0,-0.04,0.18,0,0,0
1.01,0,-0.04,0.18,0,0,0
1.01,0,-0.04,0.18,0,0,0
1.01,0,-0.04,0.18,0,0,0
1.011,0,-0.04,0.18,0,0,0
1.011,-0.03,-0.02,0.21,0,0,0
1.011,-0.03,-0.02,0.21,0,0,0
1.011,-0.03,-0.02,0.21,0,0,0
1.012,-0.03,-0.02,0.21,0,0,0
1.016,-0.03,-0.02,0.21,0,0,0
1.017,-0.03,-0.02,0.21,0,0,0
1.018,0.01,0,0.23,0,0,0
1.018,0.01,0,0.23,0,0,0
1.02,0.01,0,0.23,0,0,0
1.021,0.01,0,0.23,0,0,0
1.024,0.01,0,0.23,0,0,0
1.028,0.01,0,0.23,0,0,0
1.028,0.01,0,0.23,0,0,0
1.028,0.02,0.02,0.22,0,0,0
1.033,0.02,0.02,0.22,0,0,0
1.034,0.02,0.02,0.22,0,0,0
1.035,0.02,0.02,0.22,0,0,0
1.048,0.02,0.02,0.22,0,0,0
1.048,0.02,0.02,0.22,0,0,0
1.049,0.02,0.02,0.22,0,0,0
1.049,0.02,0.02,0.22,0,0,0
1.049,0.02,0.02,0.22,0,0,0
1.049,0.02,0.02,0.22,0,0,0
1.05,0.01,-0.01,0.2,0,0,0
1.05,0.01,-0.01,0.2,0,0,0
1.05,0.01,-0.01,0.2,0,0,0
1.052,0.01,-0.01,0.2,0,0,0
1.052,0.01,-0.01,0.2,0,0,0
1.053,0.01,-0.01,0.2,0,0,0
1.057,0.01,-0.01,0.2,0,0,0
1.058,0.01,-0.04,0.21,0,0,0
1.058,0.01,-0.04,0.21,0,0,0
1.06,0.01,-0.04,0.21,0,0,0
1.062,0.01,-0.04,0.21,0,0,0
1.064,0.01,-0.04,0.21,0,0,0
1.07,0.01,-0.04,0.21,0,0,0
1.07,0.01,-0.04,0.21,0,0,0
1.07,0.01,-0.04,0.21,0,0,0
1.07,0.02,-0.02,0.22,0,0,0
1.072,0.02,-0.02,0.22,0,0,0
1.075,0.02,-0.02,0.22,0,0,0
1.089,0.02,-0.02,0.22,0,-0.01,0
1.089,0.02,-0.02,0.22,0,0,0
1.09,0.02,-0.02,0.22,0,0,0
1.09,0.02,-0.02,0.22,0,0,0
1.09,0.02,-0.02,0.22,0,0,0
1.09,0.02,-0.02,0.22,0,0,0
1.091,0.02,-0.02,0.22,0,0,0
1.091,0.02,-0.02,0.19,0,0,0
1.091,0.02,-0.02,0.19,0,0,0
1.091,0.02,-0.02,0.19,0,0,0
1.092,0.02,-0.02,0.19,0,0,0
1.092,0.02,-0.02,0.19,0,0,0
1.094,0.02,-0.02,0.19,0,0,0
1.099,0.02,-0.02,0.19,0,0,0
1.099,0.02,-0.02,0.19,0,0,0
1.099,0,-0.02,0.23,0,0,0
1.1,0,-0.02,0.23,0,0,0
1.102,0,-0.02,0.23,0,0,0
1.104,0,-0.02,0.23,0,0,0
1.107,0,-0.02,0.23,0,0,0
1.107,0,-0.03,0.23,0,0,0
1.107,0,-0.03,0.23,0,0,0
1.11,0,-0.03,0.23,0,0,0
1.12,0,-0.03,0.23,0,0,0
1.12,0,-0.03,0.23,0,0,0
1.135,0,-0.03,0.23,0,0,0
1.137,0,-0.03,0.23,0,0,0
1.137,0,-0.03,0.23,0,0,0
1.137,0,-0.03,0.23,0,0,0
1.138,0,-0.03,0.23,0,0,0
1.146,0,-0.03,0.23,0,0,0
1.147,0,-0.03,0.23,0,0,0
1.147,0,-0.03,0.23,0,0,0
1.147,0,-0.03,0.23,0,0,0
1.148,0.02,0.01,0.19,0,0,0
1.148,0.02,0.01,0.19,0,0,0
1.148,0.02,0.01,0.19,0,0,0
1.149,0.02,0.01,0.19,0,0,0
1.149,0.02,0.01,0.19,0,0,0
1.149,0.02,0.01,0.19,0,0,0
1.149,0.02,0.01,0.19,0,0,0
1.15,0.02,0.01,0.19,0,0,0
1.15,0.02,0.01,0.19,0,0,0
1.15,0.02,0.01,0.19,0,0,0
1.15,0.01,0.01,0.18,0,0,0
1.151,0.01,0.01,0.18,0,0,0
1.151,0.01,0.01,0.18,0,0,0
1.152,0.01,0.01,0.18,0,0,0
1.153,0.01,0.01,0.18,0,0,0
1.17,0.01,0.01,0.18,0,0,0
1.171,0.01,0.01,0.18,0,0,0
1.171,0.01,0.01,0.18,0,0,0
1.172,0.01,0.01,0.18,0,0,0
1.172,0.01,0.01,0.18,0,0,0
1.172,0.01,0.01,0.18,-0.01,0,0
1.172,0.01,0.01,0.18,0,0,0
1.172,0.01,0.01,0.18,0,0,0
1.173,0.01,0,0.3,0,0,0
1.173,0.01,0,0.3,0,0,0
1.173,0.01,0,0.3,0,0,0
1.174,0.01,0,0.3,0,0,0
1.177,0.01,0,0.3,0,0,0
1.178,0.01,0,0.3,0,0,0
1.178,0.01,0,0.3,0,0,0
1.18,0.01,0,0.3,0.01,0,0
1.182,0.01,0,0.3,0,0,0
1.184,0.01,0,0.3,0,0,0
1.187,0.01,0,0.3,0,0,0
1.187,0.01,-0.05,0.17,0,0,0
1.187,0.01,-0.05,0.17,0,0,0
1.189,0.01,-0.05,0.17,0,0,0
1.192,0.01,-0.05,0.17,0,0,0
1.194,0.01,-0.05,0.17,0,0,0
1.209,0.01,-0.05,0.17,0,0,0
1.21,0.01,-0.05,0.17,0,0,0
1.21,0.01,-0.05,0.17,0,0,0
1.21,0.01,-0.05,0.17,0,0,0
1.211,0.01,-0.05,0.17,0,0,0
1.211,0.01,-0.05,0.17,0.01,0,0
1.211,0.01,-0.05,0.17,0.01,0,0
1.211,0.02,-0.01,0.23,0.01,0,0
1.212,0.02,-0.01,0.23,0.01,0,0
1.212,0.02,-0.01,0.23,0,0,0
1.213,0.02,-0.01,0.23,0,0,0
1.221,0.02,-0.01,0.23,0,0,0
1.222,0.02,-0.01,0.23,0,0,0
1.222,0.02,-0.01,0.23,0,0,0
1.222,0.02,0,0.33,0,0,0
1.227,0.02,0,0.33,0,0,0
1.228,0.02,0,0.33,0,0,0
1.228,0.02,0,0.33,0,0,0
1.228,0.02,0,0.33,0,0,0
1.228,0.02,0,0.33,0,0,0
1.228,0.01,0.01,0.24,0,0,0
1.23,0.01,0.01,0.24,0,0,0
1.233,0.01,0.01,0.24,0,0,0
1.234,0.01,0.01,0.24,0,0,0
1.252,0.01,0.01,0.24,0,0,0
1.252,0.01,0.01,0.24,0,0,0
1.253,0.01,0.01,0.24,0,0,0
1.253,0.01,0.01,0.24,0,0,0
1.253,0.01,0.01,0.24,0,0,0
1.253,0.01,0.01,0.24,0,0,0
1.253,0.01,0.01,0.24,0,0,0
1.254,0.01,0.01,0.24,0,0,0
1.254,0.01,0.01,0.24,0,0,0
1.254,-0.07,-0.02,0.24,0,0,0
1.254,-0.07,-0.02,0.24,0,0,0
1.255,-0.07,-0.02,0.24,0,0,0
1.255,-0.07,-0.02,0.24,0,0,0
1.257,-0.07,-0.02,0.24,0,0,0
1.257,0,-0.05,0.16,0,0,0
1.258,0,-0.05,0.16,0,0,0
1.26,0,-0.05,0.16,-0.01,0,0
1.262,0,-0.05,0.16,0,0,0
1.264,0,-0.05,0.16,0,0,0
1.269,0,-0.05,0.16,0,0,0
1.27,0,-0.05,0.16,0,0,0
1.27,0.02,-0.02,0.17,0,0,0
1.27,0.02,-0.02,0.17,0,0,0
1.271,0.02,-0.02,0.17,0,0,0
1.273,0.02,-0.02,0.17,0,0,0
1.288,0.02,-0.02,0.17,0,0,0
1.289,0.02,-0.02,0.17,0.01,0,0
1.289,0.02,-0.02,0.17,0.01,0,0
1.289,0.02,-0.02,0.17,0.01,0,0
1.289,0.02,-0.02,0.17,0.01,0,0
1.29,0.02,-0.02,0.17,0,0,0
1.29,0.02,-0.02,0.17,0,0,0
1.29,0,-0.07,0.21,0,0,0
1.299,0,-0.07,0.21,0,0,0
1.3,0,-0.07,0.21,0,0,0
1.3,0,-0.07,0.21,0,0,0
1.3,0,-0.07,0.21,0,0,0
1.301,0,-0.07,0.21,0,0,0
1.301,0,-0.07,0.21,0,0,0
1.301,0.02,-0.02,0.17,0,0,0
1.301,0.02,-0.02,0.17,0,0,0
1.302,0.02,-0.02,0.17,0,0,0
1.304,0.02,-0.02,0.17,0,0,0
1.308,0.02,-0.02,0.17,0,0,0
1.308,0.01,-0.01,0.2,0,0,0
1.308,0.01,-0.01,0.2,0,0,0
1.309,0.01,-0.01,0.2,0,-0.01,0
1.311,0.01,-0.01,0.2,0,0,0
1.317,0.01,-0.01,0.2,0,-0.01,0
1.331,0.01,-0.01,0.2,0,-0.01,0
1.331,0.01,-0.01,0.2,0,0,0
1.332,0.01,-0.01,0.2,0,0,0
1.332,0.01,-0.01,0.2,0,0,0
1.332,0.01,-0.01,0.2,0,0,0
1.332,0.01,-0.01,0.2,0,0,0
1.332,0.01,-0.01,0.2,0,0,0
1.332,0.01,-0.01,0.2,0,0,0
1.333,0.07,-0.01,0.27,0,0,0
1.333,0.07,-0.01,0.27,0,0,0
1.333,0.07,-0.01,0.27,0,0,0
1.334,0.07,-0.01,0.27,0,0,0
1.337,0.07,-0.01,0.27,0,0,0
1.338,0.07,-0.01,0.27,0,0,0
1.338,-0.01,0,0.21,0,0,0
1.339,-0.01,0,0.21,0,0,0
1.341,-0.01,0,0.21,0,0.01,0
1.344,-0.01,0,0.21,0,0,0
1.347,-0.01,0,0.21,0,0,0
1.348,-0.01,-0.04,0.2,0,0,0
1.35,-0.01,-0.04,0.2,0,0.01,0
1.35,-0.01,-0.04,0.2,0,0.01,0
1.352,-0.01,-0.04,0.2,0,0.01,0
1.354,-0.01,-0.04,0.2,0,0.01,0
1.371,-0.01,-0.04,0.2,0.01,0.01,0
1.372,-0.01,-0.04,0.2,0,0.01,0
1.373,-0.01,-0.04,0.2,0,0.01,0
1.373,-0.01,-0.04,0.2,0,0.01,0
1.373,-0.01,-0.04,0.2,0,0.01,0
1.374,-0.01,-0.04,0.2,0,0.01,0
1.374,-0.01,-0.04,0.2,0,0.01,0
1.374,-0.01,-0.04,0.2,0,0,0
1.375,-0.05,-0.03,0.22,0,0,0
1.375,-0.04,-0.03,0.22,0,0,0
1.375,-0.04,-0.03,0.22,0,0.01,0
1.376,-0.04,-0.03,0.22,0,0.01,0
1.377,-0.04,-0.03,0.22,0.01,0.01,0
1.378,-0.03,-0.03,0.21,0.01,0.01,0
1.378,-0.03,-0.03,0.21,0,0.01,0
1.38,-0.03,-0.03,0.21,0,0.01,0
1.382,-0.03,-0.03,0.21,0,0.01,0
1.384,-0.03,-0.03,0.21,0.01,0.01,0
1.387,-0.03,-0.03,0.21,0.01,0.02,0
1.387,-0.01,-0.01,0.18,0.01,0.02,0
1.388,-0.01,-0.01,0.18,0.01,0.02,0
1.39,-0.01,-0.01,0.18,0.01,0.02,0
1.392,-0.01,-0.01,0.18,0.01,0.02,0
1.394,-0.01,-0.01,0.18,0.01,0.03,0
1.409,-0.01,-0.01,0.18,0.02,0.03,0
1.409,-0.01,-0.01,0.18,0.01,0.03,0
1.409,-0.01,-0.01,0.18,0.01,0.03,0
1.41,-0.01,-0.01,0.18,0.01,0.03,0
1.41,-0.01,-0.01,0.18,0.01,0.03,0
1.41,-0.01,-0.01,0.18,0.01,0.03,0
1.41,-0.01,-0.01,0.18,0.01,0.02,0
1.411,0,0,0.18,0.01,0.02,0
1.411,0.01,0,0.18,0.01,0.02,0
1.411,0.01,0,0.18,0.01,0.02,0
1.412,0.01,0,0.18,0.01,0.02,0
1.418,0.01,0,0.18,0.01,0.02,0
1.418,0.01,0,0.18,0.01,0.01,0
1.419,0.01,0,0.18,0.01,0.01,0
1.419,0.02,0.01,0.18,0.01,0.01,0
1.42,0.02,0.01,0.18,0,0.01,0
1.421,0.02,0.01,0.18,0,0,0
1.425,0.02,0.01,0.18,0,0,0
1.427,0.02,0.01,0.18,0,0,0
1.428,0.04,-0.01,0.15,0,0,0
1.428,0.04,-0.01,0.15,0,0,0
1.43,0.04,-0.01,0.15,-0.01,-0.01,0
1.432,0.04,-0.01,0.15,-0.01,-0.01,0
1.433,0.04,-0.01,0.15,-0.01,-0.01,0
1.451,0.04,-0.01,0.15,-0.01,-0.02,0
1.452,0.04,-0.01,0.15,-0.01,-0.02,0
1.452,0.04,-0.01,0.15,-0.01,-0.02,0
1.452,0.04,-0.01,0.15,-0.01,-0.02,0
1.453,0.04,-0.01,0.15,-0.01,-0.02,0
1.453,0.04,-0.01,0.15,-0.01,-0.03,0
1.454,0.04,-0.01,0.15,-0.01,-0.03,0
1.454,0.04,-0.01,0.15,-0.01,-0.03,0
1.454,0,-0.03,0.2,-0.01,-0.03,0
1.454,0,-0.03,0.2,-0.01,-0.03,0
1.455,0,-0.03,0.2,-0.02,-0.04,0
1.455,0,-0.03,0.2,-0.02,-0.04,0
1.463,0,-0.03,0.2,-0.02,-0.05,0
1.463,-0.03,-0.01,0.1,-0.02,-0.05,0
1.464,-0.03,-0.01,0.1,-0.03,-0.06,0
1.465,-0.03,-0.01,0.1,-0.03,-0.06,0
1.465,-0.03,-0.01,0.1,-0.03,-0.06,0
1.468,-0.03,-0.01,0.1,-0.03,-0.06,0
1.469,-0.03,-0.01,0.1,-0.03,-0.07,0
1.469,-0.03,-0.01,0.1,-0.03,-0.06,0
1.469,0,-0.03,0.22,-0.03,-0.06,0
1.471,0,-0.03,0.22,-0.03,-0.06,0
1.472,0,-0.03,0.22,-0.03,-0.06,0
1.474,0,-0.03,0.22,-0.03,-0.05,0
1.491,0,-0.03,0.22,-0.02,-0.04,0
1.491,0,-0.03,0.22,-0.01,-0.03,0
1.492,0,-0.03,0.22,-0.01,-0.02,0
1.492,0,-0.03,0.22,0,-0.01,0
1.492,0,-0.03,0.22,0,-0.01,0
1.492,0,-0.03,0.22,0,-0.01,0
1.492,0,-0.03,0.22,0,-0.01,0
1.493,0,-0.03,0.22,0,0,0
1.493,0.04,-0.06,0.29,0,0,0
1.493,0.04,-0.06,0.29,0,0,0
1.493,0.03,-0.06,0.29,0,0,0
1.493,0.03,-0.06,0.29,0.01,0.01,0
1.494,0.03,-0.06,0.29,0.01,0.03,0
1.498,0.03,-0.06,0.29,0.02,0.03,0
1.499,0.03,-0.06,0.29,0.01,0.02,0
1.499,0,-0.01,0.24,0.01,0.02,0
1.499,0,-0.01,0.24,0.02,0.03,0
1.503,0,-0.01,0.24,0.01,0.02,0
1.504,0,-0.01,0.24,0.01,0.02,0
1.507,0,-0.01,0.24,0.01,0.02,0
1.507,0,0.01,0.17,0.01,0.02,0
1.508,0,0.01,0.17,0.01,0.01,0
1.51,0,0.01,0.17,0,0,0
1.512,0,0.01,0.17,-0.01,-0.01,0
1.518,0,0.01,0.17,0,-0.01,0
1.528,0,0.01,0.17,-0.01,-0.02,0
1.529,0,0.01,0.17,0,-0.01,0
1.529,0,0.01,0.17,0,-0.01,0
1.529,0,0.01,0.17,0,-0.01,0
1.529,0,0.01,0.17,0,0,0
1.529,0,0.01,0.17,0,0,0
1.53,0,0.01,0.17,0,0,0
1.53,0.04,-0.01,0.25,0,0,0
1.53,0.04,-0.01,0.25,0,0,0
1.532,0.04,-0.01,0.25,0,0,0
1.532,0.04,-0.01,0.25,0,0.01,0
1.534,0.04,-0.01,0.25,0.01,0.01,0
1.537,0.04,-0.01,0.25,0.01,0.01,0
1.537,0.05,-0.02,0.2,0.01,0.01,0
1.538,0.05,-0.02,0.2,0.01,0.01,0
1.54,0.05,-0.02,0.2,0,0.01,0
1.542,0.05,-0.02,0.2,0.01,0.01,0
1.545,0.05,-0.02,0.2,0.01,0.01,0
1.547,0.05,-0.02,0.2,0.01,0.02,0
1.548,0.03,-0.02,0.23,0.01,0.02,0
1.549,0.03,-0.02,0.23,0.01,0.02,0
1.552,0.03,-0.02,0.23,0.01,0.02,0
1.554,0.03,-0.02,0.23,0.01,0.02,0
1.555,0.03,-0.02,0.23,0.01,0.02,0
1.571,0.03,-0.02,0.23,0.01,0.02,0
1.572,0.03,-0.02,0.23,0.01,0.02,0
1.572,0.03,-0.02,0.23,0.01,0.02,0
1.573,0.03,-0.02,0.23,0.01,0.02,0
1.573,0.03,-0.02,0.23,0.01,0.01,0
1.573,0.03,-0.02,0.23,0.01,0.01,0
1.573,0.03,-0.02,0.23,0.01,0.01,0
1.574,0.03,-0.02,0.23,0.01,0.01,0
1.574,0,-0.04,0.19,0.01,0.01,0
1.574,0.01,-0.04,0.19,0.01,0.01,0
1.574,0.01,-0.04,0.19,0,0.01,0
1.574,0.01,-0.04,0.19,0,0.01,0
1.577,0.01,-0.04,0.19,0.01,0.01,0
1.577,-0.02,-0.03,0.2,0.01,0.01,0
1.578,-0.02,-0.03,0.2,0,0.01,0
1.581,-0.02,-0.03,0.2,0.01,0.01,0
1.582,-0.02,-0.03,0.2,0,0.01,0
1.584,-0.02,-0.03,0.2,0.01,0.01,0
1.587,-0.02,-0.03,0.2,0.01,0.01,0
1.587,-0.01,-0.03,0.22,0.01,0.01,0
1.588,-0.01,-0.03,0.22,0.01,0.02,0
1.59,-0.01,-0.03,0.22,0.01,0.02,0
1.592,-0.01,-0.03,0.22,0.01,0.02,0
1.594,-0.01,-0.03,0.22,0.01,0.02,0
1.61,-0.01,-0.03,0.22,0.01,0.02,0
1.611,-0.01,-0.03,0.22,0.01,0.01,0
1.611,-0.01,-0.03,0.22,0.01,0.01,0
1.611,-0.01,-0.03,0.22,0.01,0.01,0
1.611,-0.01,-0.03,0.22,0.01,0.01,0
1.611,-0.01,-0.03,0.22,0.01,0.01,0
1.612,-0.01,-0.03,0.22,0.01,0.01,0
1.612,-0.01,-0.03,0.22,0.01,0.01,0
1.612,0,0,0.19,0.01,0.01,0
1.613,0,0,0.19,0.01,0.01,0
1.613,0,0,0.19,0.01,0.02,0
1.619,0,0,0.19,0.01,0.02,0
1.619,0,0,0.19,0.02,0.02,0
1.62,-0.03,-0.02,0.3,0.02,0.02,0
1.62,-0.03,-0.02,0.3,0.02,0.02,0
1.628,-0.03,-0.02,0.3,0.01,0.02,0
1.628,-0.03,-0.02,0.3,0.01,0.01,0
1.629,-0.03,-0.02,0.3,0.01,0.01,0
1.629,-0.03,-0.02,0.3,0.01,0.01,0
1.629,-0.03,-0.02,0.3,0,0.02,0
1.629,0.01,0.02,0.27,0,0.02,0
1.63,0.01,0.02,0.27,0.01,0.01,0
1.634,0.01,0.02,0.27,0.01,0.02,0
1.635,0.01,0.02,0.27,0.01,0.01,0
1.649,0.01,0.02,0.27,0,0.02,0
1.649,0.01,0.02,0.27,0.02,0.04,0
1.649,0.01,0.02,0.27,0.02,0.04,0
1.65,0.01,0.02,0.27,0.02,0.04,0
1.65,0.01,0.02,0.27,0.02,0.04,0
1.65,0.01,0.02,0.27,0.02,0.04,0
1.65,0.01,0.02,0.27,0.02,0.04,0
1.65,0.03,0.01,0.17,0.02,0.04,0
1.65,0.04,0.01,0.17,0.02,0.04,0
1.65,0.05,0.01,0.17,0.02,0.04,0
1.651,0.05,0.01,0.17,0.02,0.04,0
1.651,0.05,0.01,0.17,0.01,0.03,0
1.654,0.05,0.01,0.17,0.01,0.03,0
1.657,0.05,0.01,0.17,0.01,0.02,0
1.657,0.02,-0.03,0.1,0.01,0.02,0
1.657,0.02,-0.03,0.1,0,0.01,0
1.659,0.02,-0.03,0.1,0.01,0,0
1.662,0.02,-0.03,0.1,0.01,-0.02,0
1.664,0.02,-0.03,0.1,-0.01,-0.01,0
1.667,0.02,-0.03,0.1,-0.02,-0.02,0
1.667,0.08,-0.06,0.19,-0.02,-0.02,0
1.667,0.08,-0.06,0.19,-0.01,-0.01,0
1.67,0.08,-0.06,0.19,0,0.01,0
1.672,0.08,-0.06,0.19,0.01,0.03,0
1.674,0.08,-0.06,0.19,0.02,0.05,0
1.689,0.08,-0.06,0.19,0.03,0.05,0
1.69,0.08,-0.06,0.19,0.03,0.07,0
1.69,0.08,-0.06,0.19,0.03,0.07,0
1.69,0.08,-0.06,0.19,0.03,0.07,0
1.69,0.08,-0.06,0.19,0.03,0.06,0
1.69,0.08,-0.06,0.19,0.03,0.06,0
1.691,0.08,-0.06,0.19,0.03,0.06,0
1.691,0.04,-0.03,0.05,0.03,0.06,0
1.691,0.06,-0.04,0.05,0.03,0.06,0
1.691,0.06,-0.04,0.05,0.03,0.06,0
1.691,0.06,-0.04,0.05,0.02,0.04,0
1.693,0.06,-0.04,0.05,0.02,0.03,0
1.699,0.06,-0.04,0.05,0.01,0.02,0
1.699,0,-0.01,0.03,0.01,0.02,0
1.7,0,-0.01,0.03,0.01,0.01,0
1.701,0,-0.01,0.03,0.01,0.01,0
1.705,0,-0.01,0.03,0.01,0,0
1.705,0,-0.01,0.03,0,-0.01,0
1.706,0,-0.01,0.03,-0.01,-0.02,0
1.707,-0.01,0.03,0.06,-0.01,-0.02,0
1.707,-0.01,0.03,0.06,-0.02,-0.03,0
1.71,-0.01,0.03,0.06,-0.03,-0.05,0
1.712,-0.01,0.03,0.06,-0.03,-0.06,0
1.719,-0.01,0.03,0.06,-0.03,-0.07,0
1.732,-0.01,0.03,0.06,-0.04,-0.08,0
1.733,-0.01,0.03,0.06,-0.07,-0.14,0
1.733,-0.01,0.03,0.06,-0.07,-0.14,0
1.733,-0.01,0.03,0.06,-0.07,-0.15,0
1.733,-0.01,0.03,0.06,-0.07,-0.15,0
1.734,-0.01,0.03,0.06,-0.07,-0.15,0
1.734,-0.01,0.03,0.06,-0.07,-0.15,0
1.734,-0.01,0.03,0.06,-0.08,-0.15,0
1.734,-0.04,0.05,0.07,-0.08,-0.15,0
1.734,-0.05,0.05,0.07,-0.08,-0.15,0
1.735,-0.06,0.06,0.07,-0.08,-0.15,0
1.735,-0.06,0.06,0.07,-0.07,-0.15,0
1.735,-0.06,0.06,0.07,-0.07,-0.15,0
1.737,-0.06,0.06,0.07,-0.07,-0.14,-0.01
1.738,0.03,-0.02,0.35,-0.07,-0.14,-0.01
1.739,0.03,-0.02,0.35,-0.07,-0.14,-0.01
1.739,0.03,-0.02,0.35,-0.07,-0.14,-0.01
1.742,0.03,-0.02,0.35,-0.07,-0.14,-0.02
1.743,0.03,-0.02,0.35,-0.07,-0.13,-0.04
1.747,0.03,-0.02,0.35,-0.07,-0.13,-0.08
1.748,0.4,0.09,0.23,-0.07,-0.13,-0.08
1.749,0.4,0.09,0.23,-0.07,-0.12,-0.13
1.751,0.4,0.09,0.23,-0.06,-0.12,-0.15
1.752,0.4,0.09,0.23,-0.06,-0.11,-0.19
1.754,0.4,0.09,0.23,-0.06,-0.1,-0.21
1.771,0.4,0.09,0.23,-0.05,-0.09,-0.22
1.772,0.4,0.09,0.23,-0.06,0.02,-0.1
1.772,0.4,0.09,0.23,-0.06,0.02,-0.1
1.773,0.4,0.09,0.23,-0.06,0.02,-0.1
1.773,0.4,0.09,0.23,-0.02,-0.03,-0.07
1.773,0.4,0.09,0.23,0.01,-0.06,-0.04
1.773,0.4,0.09,0.23,0.01,-0.06,-0.04
1.774,0.4,0.09,0.23,0,0,0.02
1.774,-0.78,-0.5,1.12,0,0,0.02
1.774,-0.78,-0.49,1.12,0,0,0.02
1.774,-0.78,-0.49,1.12,0,0,0.04
1.775,-0.78,-0.49,1.12,-0.01,-0.02,0.07
1.777,-0.78,-0.49,1.12,-0.03,-0.03,0.09
1.777,0.08,-0.67,-0.18,-0.03,-0.03,0.09
1.778,0.08,-0.67,-0.18,-0.04,-0.04,0.1
1.78,0.08,-0.67,-0.18,-0.07,-0.07,0.1
1.783,0.08,-0.67,-0.18,-0.08,-0.06,0.1
1.787,0.08,-0.67,-0.18,-0.1,-0.04,0.08
1.787,0.08,-0.67,-0.18,-0.11,-0.04,0.07
1.787,0.58,0.37,0.04,-0.11,-0.04,0.07
1.788,0.58,0.37,0.04,-0.13,-0.04,0.05
1.789,0.58,0.37,0.04,-0.14,-0.04,0.03
1.792,0.58,0.37,0.04,-0.11,0.01,0.02
1.796,0.58,0.37,0.04,-0.11,0.02,0.02
1.809,0.58,0.37,0.04,-0.12,0.03,0.02
1.809,0.58,0.37,0.04,-0.14,0.1,0.07
1.809,0.58,0.37,0.04,-0.14,0.1,0.07
1.81,0.58,0.37,0.04,-0.14,0.1,0.07
1.81,0.58,0.37,0.04,-0.14,0.08,0.08
1.81,0.58,0.37,0.04,-0.14,0.07,0.09
1.81,0.58,0.37,0.04,-0.14,0.07,0.09
1.811,-0.09,0.42,0.64,-0.14,0.07,0.09
1.811,-0.08,0.45,0.64,-0.14,0.07,0.09
1.811,-0.08,0.45,0.64,-0.15,0.05,0.1
1.812,-0.08,0.45,0.64,-0.16,0.06,0.12
1.814,-0.08,0.45,0.64,-0.18,0.08,0.14
1.819,-0.08,0.45,0.64,-0.19,0.1,0.16
1.821,0.26,0.69,-0.12,-0.19,0.1,0.16
1.821,0.26,0.69,-0.12,-0.21,0.13,0.19
1.822,0.26,0.69,-0.12,-0.22,0.14,0.21
1.822,0.26,0.69,-0.12,-0.23,0.13,0.22
1.824,0.26,0.69,-0.12,-0.22,0.12,0.25
1.829,0.26,0.69,-0.12,-0.22,0.08,0.28
1.829,0.26,0.69,-0.12,-0.2,0.04,0.3
1.829,0.3,1.18,0.83,-0.2,0.04,0.3
1.83,0.3,1.18,0.83,-0.2,0.02,0.31
1.832,0.3,1.18,0.83,-0.2,-0.02,0.33
1.834,0.3,1.18,0.83,-0.2,-0.05,0.35
1.85,0.3,1.19,0.83,-0.2,-0.05,0.35
1.85,0.29,1.23,0.83,-0.2,-0.05,0.35
1.853,0.29,1.23,0.83,-0.21,-0.07,0.37
1.854,0.29,1.23,0.83,-0.24,-0.05,0.41
1.854,0.29,1.23,0.83,-0.24,-0.04,0.41
1.854,0.29,1.23,0.83,-0.24,-0.03,0.41
1.854,0.29,1.23,0.83,-0.24,-0.03,0.41
1.855,0.29,1.23,0.83,-0.24,-0.03,0.41
1.855,0.29,1.23,0.83,-0.24,-0.03,0.41
1.855,0.29,1.23,0.83,-0.23,-0.01,0.39
1.855,0.29,1.23,0.83,-0.23,-0.01,0.38
1.856,0.29,1.23,0.83,-0.22,0.01,0.36
1.857,0.29,1.23,0.83,-0.21,0.03,0.32
1.858,0.29,1.23,0.83,-0.21,0.03,0.27
1.858,0.67,-1.11,-0.1,-0.21,0.03,0.27
1.859,0.67,-1.11,-0.1,-0.21,0.04,0.25
1.862,0.67,-1.11,-0.1,-0.2,0.05,0.19
1.864,0.67,-1.11,-0.1,-0.2,0.06,0.12
1.868,0.67,-1.11,-0.1,-0.2,0.07,0.09
1.87,0.98,-1.59,0.04,-0.2,0.07,0.09
1.87,0.98,-1.59,0.04,-0.19,0.06,0.03
1.871,0.98,-1.59,0.04,-0.18,0.06,-0.03
1.872,0.98,-1.59,0.04,-0.17,0.05,-0.08
1.874,0.98,-1.59,0.04,-0.15,0.04,-0.1
1.889,0.99,-1.57,0.04,-0.15,0.04,-0.1
1.89,1,-1.55,0.04,-0.15,0.04,-0.1
1.89,1,-1.55,0.04,-0.13,0.02,-0.12
1.891,1,-1.55,0.04,-0.1,0.06,-0.07
1.891,1,-1.55,0.04,-0.1,0.06,-0.07
1.891,1,-1.55,0.04,-0.1,0.06,-0.07
1.891,1,-1.55,0.04,-0.1,0.07,-0.05
1.891,1,-1.55,0.04,-0.1,0.07,-0.05
1.892,1,-1.55,0.04,-0.09,0.08,-0.02
1.892,1,-1.55,0.04,-0.08,0.07,0.05
1.892,1,-1.55,0.04,-0.07,0.04,0.13
1.893,1,-1.55,0.04,-0.05,-0.04,0.2
1.899,1,-1.55,0.04,-0.03,-0.08,0.24
1.9,1,-1.55,0.04,0,-0.17,0.3
1.901,-1.35,1.35,1.84,0,-0.17,0.3
1.901,-1.35,1.35,1.84,0.03,-0.25,0.36
1.904,-1.35,1.35,1.84,0.07,-0.33,0.42
1.905,-1.35,1.35,1.84,0.09,-0.35,0.45
1.907,-1.35,1.35,1.84,0.13,-0.4,0.5
1.907,-1.35,1.35,1.84,0.13,-0.4,0.5
1.908,-1.35,1.35,1.84,0.18,-0.44,0.54
1.909,-1.35,1.35,1.84,0.2,-0.47,0.57
1.912,-1.35,1.35,1.84,0.25,-0.5,0.59
1.915,-1.35,1.35,1.84,0.31,-0.51,0.6
1.931,-1.35,1.35,1.84,0.38,-0.55,0.61
1.931,-1.35,1.35,1.84,0.62,-0.92,0.59
1.931,-1.35,1.35,1.84,0.62,-0.92,0.59
1.932,-1.35,1.35,1.84,0.62,-0.92,0.59
1.932,-1.35,1.35,1.84,0.62,-0.92,0.59
1.932,-1.35,1.35,1.84,0.65,-0.94,0.59
1.932,-1.35,1.35,1.84,0.68,-0.96,0.58
1.933,2.09,0.34,4.4,0.68,-0.96,0.58
1.933,1.95,0.25,4.41,0.68,-0.96,0.58
1.933,1.86,0.19,4.41,0.68,-0.96,0.58
1.933,1.86,0.19,4.41,0.75,-0.97,0.56
1.934,1.86,0.19,4.41,0.79,-0.94,0.54
1.934,1.86,0.19,4.41,0.84,-0.92,0.47
1.939,1.86,0.19,4.41,0.9,-0.64,0.32
1.939,-0.45,-2.47,2.86,0.9,-0.64,0.32
1.94,-0.45,-2.47,2.86,0.9,-0.57,0.27
1.94,-0.45,-2.47,2.86,0.86,-0.75,0.27
1.942,-0.45,-2.47,2.86,0.86,-1,0.32
1.945,-0.45,-2.47,2.86,0.9,-1.16,0.4
1.947,-0.45,-2.47,2.86,0.97,-1.22,0.5
1.953,-0.55,1.46,3.57,0.97,-1.22,0.5
1.955,-0.55,1.46,3.57,1,-1.17,0.54
1.955,-0.55,1.46,3.57,1.08,-0.93,0.61
1.956,-0.55,1.46,3.57,1.17,-0.56,0.63
1.956,-0.55,1.46,3.57,1.21,-0.35,0.61
1.97,-0.55,1.46,3.57,1.29,0.05,0.55
1.971,-0.55,1.46,3.57,1.34,0.89,-0.1
1.971,-0.55,1.46,3.57,1.34,0.89,-0.1
1.971,-0.55,1.46,3.57,1.33,0.91,-0.18
1.972,-0.55,1.46,3.57,1.31,0.92,-0.25
1.972,-0.55,1.46,3.57,1.31,0.92,-0.25
1.972,-0.55,1.46,3.57,1.31,0.92,-0.25
1.972,4.42,-0.89,3.7,1.31,0.92,-0.25
1.973,4.51,-1.14,3.7,1.31,0.92,-0.25
1.973,4.6,-1.28,3.7,1.31,0.92,-0.25
1.973,4.6,-1.28,3.7,1.29,0.94,-0.32
1.973,4.6,-1.28,3.7,1.24,0.97,-0.42
1.974,4.6,-1.28,3.7,1.2,1.01,-0.51
1.977,4.6,-1.28,3.7,1.18,1.02,-0.54
1.978,1.44,-1.7,4.14,1.18,1.02,-0.54
1.978,1.44,-1.7,4.14,1.13,1.02,-0.58
1.98,1.44,-1.7,4.14,1.09,0.98,-0.6
1.982,1.44,-1.7,4.14,1.05,0.91,-0.61
1.984,1.44,-1.7,4.14,1.04,0.87,-0.6
1.987,1.44,-1.7,4.14,1.01,0.76,-0.59
1.987,-0.84,-0.92,5.37,1.01,0.76,-0.59
1.988,-0.84,-0.92,5.37,1,0.64,-0.57
1.99,-0.84,-0.92,5.37,0.99,0.53,-0.55
1.991,-0.84,-0.92,5.37,1,0.47,-0.54
1.993,-0.84,-0.92,5.37,1.01,0.36,-0.51
2.009,-0.84,-0.92,5.37,1.04,0.27,-0.47
2.009,-0.84,-0.92,5.37,1.32,-0.05,-0.29
2.009,-0.84,-0.92,5.37,1.32,-0.05,-0.29
2.01,-0.84,-0.92,5.37,1.32,-0.05,-0.29
2.01,-0.84,-0.92,5.37,1.32,-0.05,-0.29
2.01,-0.84,-0.92,5.37,1.38,-0.09,-0.26
2.011,-0.84,-0.92,5.37,1.44,-0.12,-0.24
2.011,-1.56,-0.1,8.95,1.44,-0.12,-0.24
2.012,-1.53,-0.33,8.96,1.44,-0.12,-0.24
2.012,-1.53,-0.33,8.96,1.56,-0.2,-0.18
2.013,-1.53,-0.33,8.96,1.68,-0.27,-0.14
2.014,-1.53,-0.33,8.96,1.74,-0.31,-0.11
2.021,-1.53,-0.33,8.96,1.86,-0.38,-0.06
2.026,-1.53,-0.33,8.96,1.98,-0.44,-0.02
2.026,-1.33,0.21,9.37,1.98,-0.44,-0.02
2.028,-1.33,0.21,9.37,2.04,-0.47,0.01
2.029,-1.33,0.21,9.37,2.14,-0.51,0.05
2.029,-1.33,0.21,9.37,2.25,-0.55,0.08
2.029,-1.33,0.21,9.37,2.37,-0.58,0.12
2.029,-0.64,0.17,9.39,2.37,-0.58,0.12
2.029,-0.64,0.17,9.39,2.42,-0.6,0.13
2.03,-0.64,0.17,9.39,2.54,-0.63,0.15
2.032,-0.64,0.17,9.39,2.66,-0.67,0.16
2.036,-0.64,0.17,9.39,2.77,-0.7,0.17
2.05,-0.64,0.17,9.39,2.83,-0.72,0.17
2.051,-0.64,0.17,9.39,3.28,-0.86,0.12
2.051,-0.64,0.17,9.39,3.28,-0.86,0.12
2.051,-0.64,0.17,9.39,3.28,-0.86,0.12
2.052,-0.64,0.17,9.39,3.32,-0.86,0.11
2.052,-0.64,0.17,9.39,3.36,-0.87,0.1
2.052,-0.64,0.17,9.39,3.36,-0.87,0.1
2.053,-0.64,0.17,9.39,3.4,-0.87,0.1
2.053,0.61,-0.9,6.99,3.4,-0.87,0.1
2.053,0.53,-1.17,7.03,3.4,-0.87,0.1
2.054,0.45,-1.49,7.1,3.4,-0.87,0.1
2.054,0.45,-1.49,7.1,3.46,-0.85,0.08
2.054,0.45,-1.49,7.1,3.52,-0.83,0.07
2.057,0.45,-1.49,7.1,3.55,-0.81,0.05
2.057,0.45,-1.49,7.1,3.57,-0.79,0.04
2.058,0.72,-2.01,4.86,3.57,-0.79,0.04
2.06,0.72,-2.01,4.86,3.58,-0.77,0.01
2.061,0.72,-2.01,4.86,3.57,-0.74,-0.01
2.063,0.72,-2.01,4.86,3.56,-0.73,-0.03
2.067,0.72,-2.01,4.86,3.53,-0.72,-0.06
2.068,0.73,-2,2.58,3.53,-0.72,-0.06
2.069,0.73,-2,2.58,3.47,-0.71,-0.09
2.071,0.73,-2,2.58,3.4,-0.7,-0.13
2.072,0.73,-2,2.58,3.36,-0.7,-0.15
2.073,0.73,-2,2.58,3.27,-0.7,-0.19
2.09,0.73,-2,2.58,3.17,-0.69,-0.23
2.091,0.73,-2,2.58,2.83,-0.58,-0.4
2.091,0.73,-2,2.58,2.8,-0.57,-0.41
2.092,0.73,-2,2.58,2.77,-0.55,-0.43
2.092,0.73,-2,2.58,2.77,-0.55,-0.43
2.093,0.73,-2,2.58,2.77,-0.55,-0.43
2.093,0.73,-2,2.58,2.77,-0.55,-0.43
2.093,0.73,-2,2.58,2.73,-0.52,-0.47
2.094,1.26,-0.99,2.51,2.73,-0.52,-0.47
2.094,1.17,-1.55,2.72,2.73,-0.52,-0.47
2.094,1.13,-1.8,2.83,2.73,-0.52,-0.47
2.095,1.13,-1.8,2.83,2.71,-0.5,-0.5
2.095,1.13,-1.8,2.83,2.7,-0.5,-0.52
2.097,1.13,-1.8,2.83,2.7,-0.5,-0.55
2.098,0.76,-2.52,4.51,2.7,-0.5,-0.55
2.098,0.76,-2.52,4.51,2.72,-0.52,-0.59
2.1,0.76,-2.52,4.51,2.76,-0.56,-0.62
2.104,0.76,-2.52,4.51,2.78,-0.58,-0.64
2.105,0.76,-2.52,4.51,2.83,-0.63,-0.66
2.106,0.76,-2.52,4.51,2.89,-0.69,-0.67
2.107,-0.36,-3.27,5.56,2.89,-0.69,-0.67
2.107,-0.36,-3.27,5.56,2.92,-0.72,-0.67
2.111,-0.36,-3.27,5.56,2.98,-0.76,-0.66
2.112,-0.36,-3.27,5.56,3.05,-0.81,-0.64
2.114,-0.36,-3.27,5.56,3.12,-0.87,-0.6
2.13,-0.36,-3.27,5.56,3.15,-0.89,-0.58
2.131,-0.36,-3.27,5.56,3.39,-1,-0.26
2.131,-0.36,-3.27,5.56,3.39,-1,-0.26
2.131,-0.36,-3.27,5.56,3.39,-1,-0.26
2.131,-0.36,-3.27,5.56,3.41,-1.01,-0.22
2.132,-0.36,-3.27,5.56,3.44,-1.02,-0.18
2.132,-0.36,-3.27,5.56,3.44,-1.02,-0.18
2.132,-0.36,-3.27,5.56,3.47,-1.03,-0.15
2.132,-2.91,-2.2,5.52,3.47,-1.03,-0.15
2.132,-3.03,-2.77,5.84,3.47,-1.03,-0.15
2.132,-3.11,-3.05,6.03,3.47,-1.03,-0.15
2.133,-3.11,-3.05,6.03,3.53,-1.05,-0.08
2.134,-3.11,-3.05,6.03,3.6,-1.07,-0.02
2.137,-3.11,-3.05,6.03,3.66,-1.09,0.03
2.138,-3.11,-3.05,6.03,3.69,-1.1,0.05
2.138,-2.07,-3.63,5.79,3.69,-1.1,0.05
2.139,-2.07,-3.63,5.79,3.75,-1.11,0.08
2.141,-2.07,-3.63,5.79,3.82,-1.11,0.11
2.143,-2.07,-3.63,5.79,3.88,-1.09,0.12
2.147,-2.07,-3.63,5.79,3.91,-1.09,0.13
2.147,-0.52,-4.76,5.31,3.91,-1.09,0.13
2.147,-0.52,-4.76,5.31,3.97,-1.07,0.12
2.153,-0.52,-4.76,5.31,4.04,-1.05,0.1
2.154,-0.52,-4.76,5.31,4.07,-1.03,0.09
2.154,-0.52,-4.76,5.31,4.13,-1.01,0.07
2.17,-0.52,-4.76,5.31,4.18,-0.99,0.05
2.171,-0.52,-4.76,5.31,4.34,-0.9,-0.18
2.171,-0.52,-4.76,5.31,4.34,-0.9,-0.18
2.171,-0.52,-4.76,5.31,4.34,-0.9,-0.18
2.171,-0.52,-4.76,5.31,4.35,-0.91,-0.22
2.172,-0.52,-4.76,5.31,4.35,-0.91,-0.22
2.172,-0.52,-4.76,5.31,4.36,-0.91,-0.25
2.172,-0.52,-4.76,5.31,4.38,-0.93,-0.32
2.172,1.07,-5.29,2.22,4.38,-0.93,-0.32
2.173,0.94,-5.93,2.77,4.38,-0.93,-0.32
2.173,0.89,-6.24,3.07,4.38,-0.93,-0.32
2.173,0.89,-6.24,3.07,4.38,-0.95,-0.38
2.174,0.89,-6.24,3.07,4.38,-0.95,-0.41
2.177,0.89,-6.24,3.07,4.36,-0.94,-0.44
2.178,0.89,-6.24,3.07,4.34,-0.91,-0.47
2.178,-0.62,-5.98,0.69,4.34,-0.91,-0.47
2.18,-0.62,-5.98,0.69,4.31,-0.88,-0.47
2.185,-0.62,-5.98,0.69,4.29,-0.85,-0.47
2.186,-0.62,-5.98,0.69,4.25,-0.82,-0.46
2.188,-0.62,-5.98,0.69,4.22,-0.78,-0.44
2.189,-0.62,-5.98,0.69,4.18,-0.76,-0.42
2.189,-2.36,-5.58,-0.82,4.18,-0.76,-0.42
2.19,-2.36,-5.58,-0.82,4.16,-0.75,-0.41
2.192,-2.36,-5.58,-0.82,4.12,-0.75,-0.38
2.193,-2.36,-5.58,-0.82,4.06,-0.75,-0.36
2.21,-2.36,-5.58,-0.82,4.03,-0.76,-0.34
2.211,-2.36,-5.58,-0.82,3.66,-0.86,-0.21
2.211,-2.36,-5.58,-0.82,3.62,-0.86,-0.19
2.211,-2.36,-5.58,-0.82,3.58,-0.86,-0.17
2.211,-2.36,-5.58,-0.82,3.58,-0.86,-0.17
2.212,-2.36,-5.58,-0.82,3.58,-0.86,-0.17
2.212,-2.36,-5.58,-0.82,3.58,-0.86,-0.17
2.212,-2.36,-5.58,-0.82,3.5,-0.87,-0.15
2.212,-3.24,-3.63,-2.31,3.5,-0.87,-0.15
2.213,-3.26,-3.89,-2,3.5,-0.87,-0.15
2.213,-3.3,-4.11,-1.7,3.5,-0.87,-0.15
2.213,-3.3,-4.11,-1.7,3.46,-0.87,-0.14
2.214,-3.3,-4.11,-1.7,3.41,-0.88,-0.13
2.219,-3.3,-4.11,-1.7,3.36,-0.89,-0.14
2.22,-3.3,-4.11,-1.7,3.34,-0.89,-0.15
2.22,-1.65,-4.18,-1.2,3.34,-0.89,-0.15
2.221,-1.65,-4.18,-1.2,3.3,-0.89,-0.18
2.225,-1.65,-4.18,-1.2,3.28,-0.88,-0.22
2.226,-1.65,-4.18,-1.2,3.25,-0.86,-0.28
2.226,-1.65,-4.18,-1.2,3.24,-0.85,-0.31
2.226,0.14,-4.89,-0.42,3.24,-0.85,-0.31
2.228,0.14,-4.89,-0.42,3.22,-0.82,-0.37
2.23,0.14,-4.89,-0.42,3.2,-0.8,-0.44
2.236,0.14,-4.89,-0.42,3.18,-0.77,-0.51
2.237,0.14,-4.89,-0.42,3.17,-0.75,-0.54
2.249,0.14,-4.89,-0.42,3.16,-0.71,-0.6
2.25,0.14,-4.89,-0.42,3.16,-0.56,-0.71
2.25,0.14,-4.89,-0.42,3.16,-0.56,-0.71
2.25,0.14,-4.89,-0.42,3.16,-0.56,-0.71
2.25,0.14,-4.89,-0.42,3.16,-0.56,-0.71
2.25,0.14,-4.89,-0.42,3.16,-0.55,-0.71
2.251,0.14,-4.89,-0.42,3.16,-0.54,-0.71
2.251,-0.64,-4.47,0.27,3.16,-0.54,-0.71
2.251,-0.58,-4.78,0.83,3.16,-0.54,-0.71
2.251,-0.58,-4.78,0.83,3.16,-0.52,-0.68
2.253,-0.58,-4.78,0.83,3.17,-0.5,-0.64
2.254,-0.58,-4.78,0.83,3.17,-0.48,-0.59
2.257,-0.58,-4.78,0.83,3.17,-0.47,-0.55
2.257,-2,-4.3,1.4,3.17,-0.47,-0.55
2.257,-2,-4.3,1.4,3.18,-0.46,-0.48
2.26,-2,-4.3,1.4,3.19,-0.44,-0.39
2.262,-2,-4.3,1.4,3.2,-0.43,-0.35
2.264,-2,-4.3,1.4,3.23,-0.43,-0.27
2.267,-2,-4.3,1.4,3.27,-0.45,-0.2
2.268,-3.01,-4.36,1.76,3.27,-0.45,-0.2
2.27,-3.01,-4.36,1.76,3.31,-0.49,-0.13
2.271,-3.01,-4.36,1.76,3.34,-0.51,-0.1
2.274,-3.01,-4.36,1.76,3.39,-0.57,-0.04
2.274,-3.01,-4.36,1.76,3.44,-0.62,0.01
2.29,-3.01,-4.36,1.76,3.49,-0.66,0.05
2.291,-3.01,-4.36,1.76,3.63,-0.72,0.16
2.291,-3.01,-4.36,1.76,3.63,-0.72,0.16
2.291,-3.01,-4.36,1.76,3.63,-0.72,0.16
2.291,-3.01,-4.36,1.76,3.64,-0.73,0.17
2.291,-3.01,-4.36,1.76,3.66,-0.73,0.18
2.292,-3.01,-4.36,1.76,3.66,-0.73,0.18
2.292,-3.01,-4.36,1.76,3.68,-0.75,0.19
2.292,-1.94,-4.99,0.37,3.68,-0.75,0.19
2.292,-2,-5.2,1.04,3.68,-0.75,0.19
2.293,-2,-5.2,1.04,3.69,-0.76,0.2
2.293,-2,-5.2,1.04,3.7,-0.77,0.21
2.297,-2,-5.2,1.04,3.71,-0.8,0.21
2.297,-1.47,-5.24,0.22,3.71,-0.8,0.21
2.298,-1.47,-5.24,0.22,3.71,-0.82,0.21
2.3,-1.47,-5.24,0.22,3.7,-0.84,0.21
2.305,-1.47,-5.24,0.22,3.68,-0.87,0.2
2.305,-1.47,-5.24,0.22,3.64,-0.9,0.19
2.306,-1.47,-5.24,0.22,3.62,-0.91,0.19
2.307,-0.8,-4.88,-0.82,3.62,-0.91,0.19
2.308,-0.8,-4.88,-0.82,3.56,-0.94,0.17
2.31,-0.8,-4.88,-0.82,3.5,-0.97,0.15
2.312,-0.8,-4.88,-0.82,3.43,-0.99,0.13
2.313,-0.8,-4.88,-0.82,3.39,-1,0.11
2.33,-0.8,-4.88,-0.82,3.31,-1.02,0.09
2.331,-0.8,-4.88,-0.82,2.91,-1,0.01
2.331,-0.8,-4.88,-0.82,2.91,-1,0.01
2.332,-0.8,-4.88,-0.82,2.87,-0.98,0
2.332,-0.8,-4.88,-0.82,2.87,-0.98,0
2.332,-0.8,-4.88,-0.82,2.81,-0.97,-0.01
2.332,-0.8,-4.88,-0.82,2.81,-0.97,-0.01
2.333,-0.8,-4.88,-0.82,2.76,-0.96,-0.02
2.333,-0.22,-3.2,-2.24,2.76,-0.96,-0.02
2.333,-0.26,-3.28,-1.61,2.76,-0.96,-0.02
2.334,-0.27,-3.31,-1.32,2.76,-0.96,-0.02
2.344,-0.27,-3.31,-1.32,2.67,-0.95,-0.04
2.345,-0.27,-3.31,-1.32,2.58,-0.94,-0.06
2.345,-0.27,-3.31,-1.32,2.53,-0.94,-0.07
2.346,-0.27,-3.31,-1.32,2.45,-0.94,-0.09
2.346,-0.07,-2.69,-1.33,2.45,-0.94,-0.09
2.346,-0.07,-2.69,-1.33,2.36,-0.95,-0.11
2.347,-0.07,-2.69,-1.33,2.28,-0.97,-0.12
2.347,-0.07,-2.69,-1.33,2.24,-0.98,-0.13
2.35,-0.07,-2.69,-1.33,2.16,-1,-0.14
2.351,-0.07,-2.7,-1.07,2.16,-1,-0.14
2.351,-0.07,-2.7,-1.07,2.09,-1,-0.15
2.351,-0.07,-2.7,-1.07,2.05,-1,-0.15
2.352,-0.07,-2.7,-1.07,1.99,-1,-0.15
2.354,-0.07,-2.7,-1.07,1.93,-0.99,-0.14
2.373,-0.07,-2.7,-1.07,1.88,-0.98,-0.14
2.374,-0.07,-2.7,-1.07,1.82,-0.96,-0.12
2.374,-0.07,-2.7,-1.07,1.82,-0.96,-0.12
2.374,-0.07,-2.7,-1.07,1.82,-0.96,-0.12
2.374,-0.07,-2.7,-1.07,1.82,-0.96,-0.13
2.374,-0.07,-2.7,-1.07,1.82,-0.96,-0.13
2.374,-0.07,-2.7,-1.07,1.82,-0.96,-0.13
2.375,-0.07,-2.7,-1.07,1.83,-0.95,-0.13
2.375,-0.28,-2.65,1.5,1.83,-0.95,-0.13
2.375,-0.25,-2.65,1.89,1.83,-0.95,-0.13
2.375,-0.24,-2.65,2.08,1.83,-0.95,-0.13
2.375,-0.24,-2.65,2.08,1.83,-0.95,-0.14
2.375,-0.24,-2.65,2.08,1.85,-0.93,-0.14
2.377,-0.24,-2.65,2.08,1.86,-0.91,-0.15
2.377,-0.3,-2.09,2.11,1.86,-0.91,-0.15
2.378,-0.3,-2.09,2.11,1.88,-0.88,-0.16
2.38,-0.3,-2.09,2.11,1.89,-0.86,-0.16
2.384,-0.3,-2.09,2.11,1.91,-0.81,-0.16
2.385,-0.3,-2.09,2.11,1.93,-0.76,-0.16
2.387,-0.3,-2.09,2.11,1.95,-0.7,-0.16
2.388,-0.66,-1.75,1.93,1.95,-0.7,-0.16
2.388,-0.66,-1.75,1.93,1.96,-0.67,-0.16
2.39,-0.66,-1.75,1.93,1.96,-0.6,-0.16
2.392,-0.66,-1.75,1.93,1.97,-0.54,-0.15
2.395,-0.66,-1.75,1.93,1.97,-0.51,-0.15
2.41,-0.66,-1.75,1.93,1.97,-0.44,-0.15
2.41,-0.66,-1.75,1.93,1.95,-0.18,-0.14
2.41,-0.66,-1.75,1.93,1.95,-0.16,-0.14
2.41,-0.66,-1.75,1.93,1.95,-0.16,-0.14
2.411,-0.66,-1.75,1.93,1.95,-0.16,-0.14
2.411,-0.66,-1.75,1.93,1.96,-0.13,-0.14
2.411,-0.66,-1.75,1.93,1.96,-0.12,-0.14
2.411,-0.57,-1.87,1.51,1.96,-0.12,-0.14
2.411,-0.53,-1.84,1.9,1.96,-0.12,-0.14
2.411,-0.52,-1.82,2.08,1.96,-0.12,-0.14
2.412,-0.52,-1.82,2.08,1.96,-0.09,-0.14
2.412,-0.52,-1.82,2.08,1.98,-0.05,-0.14
2.419,-0.52,-1.82,2.08,1.99,-0.01,-0.15
2.42,-0.52,-1.82,2.08,2,0,-0.14
2.421,-0.33,-1.97,1.72,2,0,-0.14
2.421,-0.33,-1.97,1.72,2.01,0.04,-0.14
2.421,-0.33,-1.97,1.72,2.03,0.06,-0.15
2.421,-0.33,-1.97,1.72,2.04,0.09,-0.14
2.426,-0.33,-1.97,1.72,2.04,0.09,-0.14
2.428,-0.33,-1.97,1.72,2.05,0.11,-0.14
2.428,-0.25,-1.74,1.3,2.05,0.11,-0.14
2.428,-0.25,-1.74,1.3,2.05,0.12,-0.13
2.429,-0.25,-1.74,1.3,2.06,0.13,-0.12
2.432,-0.25,-1.74,1.3,2.07,0.12,-0.12
2.434,-0.25,-1.74,1.3,2.07,0.11,-0.1
2.451,-0.25,-1.74,1.3,2.07,0.1,-0.09
2.451,-0.25,-1.74,1.3,2.05,-0.04,0.03
2.452,-0.25,-1.74,1.3,2.04,-0.06,0.05
2.452,-0.25,-1.74,1.3,2.04,-0.09,0.07
2.452,-0.25,-1.74,1.3,2.04,-0.09,0.07
2.452,-0.25,-1.74,1.3,2.04,-0.09,0.07
2.453,-0.25,-1.74,1.3,2.04,-0.09,0.07
2.453,-0.25,-1.74,1.3,2.03,-0.14,0.11
2.454,-0.83,-1.47,0.36,2.03,-0.14,0.11
2.455,-0.83,-1.44,0.56,2.03,-0.14,0.11
2.455,-0.83,-1.4,0.75,2.03,-0.14,0.11
2.455,-0.83,-1.4,0.75,2.02,-0.21,0.16
2.455,-0.83,-1.4,0.75,2.02,-0.23,0.18
2.457,-0.83,-1.4,0.75,2.02,-0.23,0.18
2.458,-0.83,-1.4,0.75,2.02,-0.3,0.22
2.458,-0.83,-1.4,0.75,2.01,-0.37,0.26
2.459,-0.83,-1.4,0.75,2.01,-0.41,0.29
2.461,-0.83,-1.4,0.75,2,-0.48,0.32
2.463,-0.83,-1.4,0.75,1.98,-0.56,0.35
2.468,-0.83,-1.4,0.75,1.96,-0.64,0.38
2.468,-0.83,-1.4,0.75,1.96,-0.67,0.39
2.469,-0.37,-1.78,-0.12,1.96,-0.67,0.39
2.472,-0.37,-1.78,-0.12,1.94,-0.74,0.41
2.472,-0.37,-1.78,-0.12,1.91,-0.8,0.42
2.474,-0.37,-1.78,-0.12,1.89,-0.85,0.43
2.489,-0.37,-1.78,-0.12,1.87,-0.87,0.44
2.489,-0.37,-1.78,-0.12,1.71,-0.95,0.43
2.49,-0.37,-1.78,-0.12,1.68,-0.95,0.43
2.49,-0.37,-1.78,-0.12,1.68,-0.95,0.43
2.49,-0.37,-1.78,-0.12,1.68,-0.95,0.43
2.49,-0.37,-1.78,-0.12,1.65,-0.95,0.42
2.49,-0.37,-1.78,-0.12,1.62,-0.94,0.42
2.491,-0.17,-1.63,-1.89,1.62,-0.94,0.42
2.491,-0.2,-1.52,-1.53,1.62,-0.94,0.42
2.493,-0.2,-1.52,-1.53,1.59,-0.93,0.42
2.493,-0.2,-1.52,-1.53,1.51,-0.9,0.41
2.494,-0.2,-1.52,-1.53,1.43,-0.86,0.4
2.497,-0.2,-1.52,-1.53,1.34,-0.81,0.38
2.498,-0.2,-1.52,-1.53,1.29,-0.79,0.37
2.498,-0.03,-0.97,-2.01,1.29,-0.79,0.37
2.5,-0.03,-0.97,-2.01,1.19,-0.73,0.36
2.502,-0.03,-0.97,-2.01,1.1,-0.67,0.34
2.503,-0.03,-0.97,-2.01,1.05,-0.64,0.33
2.507,-0.03,-0.97,-2.01,0.95,-0.58,0.31
2.507,0.4,-0.48,-2.1,0.95,-0.58,0.31
2.508,0.4,-0.48,-2.1,0.85,-0.52,0.28
2.51,0.4,-0.48,-2.1,0.75,-0.46,0.26
2.513,0.4,-0.48,-2.1,0.7,-0.43,0.24
2.515,0.4,-0.48,-2.1,0.6,-0.37,0.21
2.53,0.4,-0.48,-2.1,0.5,-0.31,0.18
2.531,0.4,-0.48,-2.1,0.17,-0.16,0.05
2.531,0.4,-0.48,-2.1,0.17,-0.16,0.05
2.531,0.4,-0.48,-2.1,0.14,-0.14,0.04
2.531,0.4,-0.48,-2.1,0.11,-0.13,0.03
2.532,0.4,-0.48,-2.1,0.11,-0.13,0.03
2.532,0.4,-0.48,-2.1,0.11,-0.13,0.03
2.533,1.02,-0.5,-0.17,0.11,-0.13,0.03
2.533,1.01,-0.47,-0.1,0.11,-0.13,0.03
2.534,1.02,-0.47,-0.09,0.11,-0.13,0.03
2.534,1.02,-0.47,-0.09,0.06,-0.11,0.01
2.535,1.02,-0.47,-0.09,0.01,-0.1,-0.01
2.535,1.02,-0.47,-0.09,-0.01,-0.09,-0.02
2.541,1.02,-0.47,-0.09,-0.04,-0.09,-0.03
2.542,0.88,-0.42,1.23,-0.04,-0.09,-0.03
2.542,0.88,-0.42,1.23,-0.07,-0.1,-0.04
2.542,0.88,-0.42,1.23,-0.09,-0.11,-0.05
2.543,0.88,-0.42,1.23,-0.1,-0.12,-0.05
2.549,0.88,-0.42,1.23,-0.11,-0.14,-0.05
2.549,0.88,-0.42,1.23,-0.11,-0.16,-0.04
2.549,0.54,-0.29,2.37,-0.11,-0.16,-0.04
2.552,0.54,-0.29,2.37,-0.12,-0.18,-0.04
2.552,0.54,-0.29,2.37,-0.11,-0.2,-0.04
2.556,0.54,-0.29,2.37,-0.11,-0.22,-0.02
2.556,0.54,-0.29,2.37,-0.09,-0.24,-0.01
2.576,0.54,-0.29,2.37,-0.09,-0.25,-0.01
2.577,0.54,-0.29,2.37,0.05,-0.3,0.05
2.577,0.54,-0.29,2.37,0.07,-0.3,0.05
2.577,0.54,-0.29,2.37,0.09,-0.3,0.06
2.578,0.54,-0.29,2.37,0.09,-0.3,0.06
2.578,0.54,-0.29,2.37,0.09,-0.3,0.06
2.578,0.54,-0.29,2.37,0.09,-0.3,0.06
2.578,0.54,-0.29,2.37,0.14,-0.29,0.07
2.578,-0.03,-0.3,3.73,0.14,-0.29,0.07
2.579,-0.02,-0.3,3.74,0.14,-0.29,0.07
2.579,-0.01,-0.3,3.75,0.14,-0.29,0.07
2.579,-0.01,-0.3,3.75,0.15,-0.29,0.07
2.579,-0.01,-0.3,3.75,0.19,-0.28,0.08
2.579,-0.01,-0.3,3.75,0.22,-0.28,0.09
2.58,-0.1,-0.27,3.66,0.22,-0.28,0.09
2.58,-0.1,-0.27,3.66,0.24,-0.27,0.09
2.58,-0.1,-0.27,3.66,0.26,-0.27,0.1
2.581,-0.1,-0.27,3.66,0.28,-0.26,0.1
2.583,-0.1,-0.27,3.66,0.29,-0.25,0.1
2.587,-0.1,-0.27,3.66,0.29,-0.25,0.1
2.587,-0.04,-0.09,3.14,0.29,-0.25,0.1
2.587,-0.04,-0.09,3.14,0.3,-0.24,0.1
2.589,-0.04,-0.09,3.14,0.3,-0.22,0.09
2.591,-0.04,-0.09,3.14,0.29,-0.22,0.09
2.593,-0.04,-0.09,3.14,0.28,-0.2,0.08
2.61,-0.04,-0.09,3.14,0.26,-0.19,0.07
2.61,-0.04,-0.09,3.14,0.15,-0.1,0.03
2.61,-0.04,-0.09,3.14,0.15,-0.1,0.03
2.611,-0.04,-0.09,3.14,0.15,-0.1,0.03
2.611,-0.04,-0.09,3.14,0.13,-0.09,0.02
2.611,-0.04,-0.09,3.14,0.12,-0.09,0.02
2.611,-0.04,-0.09,3.14,0.12,-0.09,0.02
2.611,-0.04,-0.09,3.14,0.08,-0.08,0.01
2.612,0.37,0.21,2.5,0.08,-0.08,0.01
2.612,0.37,0.23,2.54,0.08,-0.08,0.01
2.612,0.37,0.23,2.54,0.05,-0.07,-0.01
2.614,0.37,0.23,2.54,0.04,-0.06,-0.01
2.619,0.37,0.23,2.54,0.02,-0.06,-0.02
2.62,0.37,0.23,2.54,-0.01,-0.05,-0.03
2.62,0.37,0.23,2.54,-0.03,-0.05,-0.04
2.62,0.51,0.3,2.84,-0.03,-0.05,-0.04
2.624,0.51,0.3,2.84,-0.04,-0.05,-0.05
2.625,0.51,0.3,2.84,-0.05,-0.04,-0.06
2.626,0.51,0.3,2.84,-0.06,-0.04,-0.07
2.627,0.51,0.3,2.84,-0.06,-0.04,-0.07
2.628,0.51,0.3,2.84,-0.07,-0.03,-0.08
2.63,0.51,0.3,2.84,-0.07,-0.03,-0.08
2.631,0.51,0.3,2.84,-0.08,-0.02,-0.09
2.637,0.51,0.3,2.84,-0.07,-0.02,-0.1
2.649,0.51,0.3,2.84,-0.07,-0.01,-0.1
2.65,0.51,0.3,2.84,-0.02,0.02,-0.12
2.65,0.51,0.3,2.84,-0.02,0.02,-0.12
2.65,0.51,0.3,2.84,-0.02,0.02,-0.12
2.656,0.51,0.3,2.84,-0.01,0.02,-0.12
2.657,0.51,0.3,2.84,0,0.03,-0.12
2.657,0.51,0.3,2.84,0,0.03,-0.12
2.657,0.28,0.42,3.99,0,0.03,-0.12
2.658,0.3,0.41,3.97,0,0.03,-0.12
2.658,0.3,0.41,3.97,0.01,0.04,-0.12
2.658,0.3,0.41,3.97,0.03,0.04,-0.12
2.659,0.3,0.41,3.97,0.04,0.04,-0.12
2.659,0.31,0.41,3.97,0.04,0.04,-0.12
2.659,0.31,0.41,3.97,0.06,0.05,-0.12
2.659,0.31,0.41,3.97,0.07,0.06,-0.12
2.66,0.31,0.41,3.97,0.09,0.07,-0.12
2.662,0.31,0.41,3.97,0.1,0.08,-0.12
2.663,0.31,0.41,3.97,0.12,0.09,-0.12
2.669,0.31,0.41,3.97,0.12,0.09,-0.12
2.671,-0.09,0.44,3.7,0.12,0.09,-0.12
2.671,-0.09,0.44,3.7,0.14,0.1,-0.11
2.671,-0.09,0.44,3.7,0.16,0.09,-0.11
2.671,-0.09,0.44,3.7,0.16,0.09,-0.1
2.674,-0.09,0.44,3.7,0.17,0.09,-0.1
2.69,-0.09,0.44,3.7,0.17,0.08,-0.09
2.691,-0.09,0.44,3.7,0.16,0.04,-0.05
2.691,-0.09,0.44,3.7,0.16,0.04,-0.05
2.691,-0.09,0.44,3.7,0.16,0.04,-0.05
2.691,-0.09,0.44,3.7,0.15,0.03,-0.04
2.691,-0.09,0.44,3.7,0.15,0.03,-0.04
2.692,-0.09,0.44,3.7,0.15,0.03,-0.04
2.692,-0.09,0.44,3.7,0.14,0.03,-0.04
2.692,-0.44,0.39,2.98,0.14,0.03,-0.04
2.692,-0.43,0.39,3,0.14,0.03,-0.04
2.692,-0.43,0.39,3,0.13,0.01,-0.02
2.694,-0.43,0.39,3,0.11,-0.01,-0.01
2.697,-0.43,0.39,3,0.1,-0.02,0
2.698,-0.43,0.39,3,0.08,-0.04,0.02
2.698,-0.52,0.43,2.98,0.08,-0.04,0.02
2.7,-0.52,0.43,2.98,0.07,-0.06,0.03
2.704,-0.52,0.43,2.98,0.05,-0.08,0.04
2.705,-0.52,0.43,2.98,0.04,-0.09,0.06
2.707,-0.52,0.43,2.98,0.03,-0.11,0.08
2.707,-0.48,0.57,3.26,0.03,-0.11,0.08
2.708,-0.48,0.57,3.26,0.02,-0.12,0.1
2.71,-0.48,0.57,3.26,0.02,-0.12,0.1
2.712,-0.48,0.57,3.26,0.02,-0.14,0.12
2.714,-0.48,0.57,3.26,0.02,-0.15,0.13
2.732,-0.48,0.57,3.26,0.02,-0.15,0.14
2.732,-0.48,0.57,3.26,0.07,-0.14,0.17
2.732,-0.48,0.57,3.26,0.07,-0.14,0.17
2.732,-0.48,0.57,3.26,0.07,-0.13,0.17
2.733,-0.48,0.57,3.26,0.08,-0.13,0.16
2.733,-0.48,0.57,3.26,0.08,-0.13,0.16
2.733,-0.48,0.57,3.26,0.08,-0.13,0.16
2.733,-0.48,0.57,3.26,0.09,-0.11,0.16
2.733,0.11,0.54,3.72,0.09,-0.11,0.16
2.734,0.09,0.54,3.72,0.09,-0.11,0.16
2.739,0.09,0.54,3.72,0.1,-0.1,0.16
2.74,0.09,0.54,3.72,0.12,-0.08,0.16
2.74,0.09,0.54,3.72,0.13,-0.06,0.15
2.74,0.44,0.45,3.65,0.13,-0.06,0.15
2.741,0.44,0.45,3.65,0.14,-0.03,0.14
2.741,0.44,0.45,3.65,0.15,-0.02,0.14
2.746,0.44,0.45,3.65,0.15,0,0.12
2.747,0.44,0.45,3.65,0.16,0.02,0.11
2.747,0.42,0.45,3.66,0.16,0.02,0.11
2.747,0.42,0.45,3.66,0.16,0.04,0.09
2.748,0.42,0.45,3.66,0.16,0.05,0.08
2.75,0.42,0.45,3.66,0.16,0.07,0.07
2.753,0.42,0.45,3.66,0.15,0.09,0.05
2.754,0.42,0.45,3.66,0.15,0.1,0.05
2.769,0.42,0.45,3.66,0.15,0.13,0.03
2.77,0.42,0.45,3.66,0.13,0.2,-0.02
2.77,0.42,0.45,3.66,0.13,0.21,-0.02
2.77,0.42,0.45,3.66,0.13,0.21,-0.02
2.773,0.42,0.45,3.66,0.13,0.21,-0.02
2.773,0.42,0.45,3.66,0.13,0.22,-0.03
2.774,0.42,0.45,3.66,0.12,0.23,-0.03
2.774,0.71,0.36,2.82,0.12,0.23,-0.03
2.774,0.69,0.36,2.82,0.12,0.23,-0.03
2.774,0.69,0.36,2.82,0.12,0.23,-0.04
2.775,0.69,0.36,2.82,0.11,0.24,-0.05
2.776,0.69,0.36,2.82,0.1,0.25,-0.05
