time,ax,ay,az,wx,wy,wz
0.001,0.02,0,0.21,0,0,0
0.001,0.02,0,0.21,0,0,0
0.002,0.02,0,0.21,0,0,0
0.002,0.02,0,0.22,0,0,0
0.002,0.02,0,0.22,0,-0.01,0
0.004,0.02,0,0.22,0,-0.01,0
0.005,0.02,0,0.22,-0.01,-0.01,0
0.007,0.02,0,0.22,0,-0.01,0
0.022,0.02,0,0.22,-0.01,-0.01,0
0.023,0.02,0,0.22,0,-0.01,0
0.023,0.02,0,0.22,0,-0.01,0
0.023,0.02,0,0.22,0,-0.01,0
0.023,0.02,0,0.22,-0.01,-0.01,0
0.023,0.02,0,0.22,0,-0.01,0
0.024,0.02,0,0.22,0,-0.01,0
0.024,0.01,-0.01,0.23,0,-0.01,0
0.024,0.01,-0.01,0.23,0,-0.01,0
0.024,0.01,-0.01,0.23,0,-0.01,0
0.026,0.01,-0.01,0.23,0,-0.01,0
0.028,0.01,-0.01,0.23,0,-0.01,0
0.036,0.01,-0.01,0.23,0,0,0
0.036,0.01,-0.01,0.23,0,0,0
0.037,0.01,-0.01,0.23,0,0,0
0.037,0.01,-0.01,0.23,0,0,0
0.037,0.01,-0.01,0.23,0,0,0
0.037,0.01,-0.01,0.23,0,0,0
0.041,0.01,-0.01,0.23,0,0,0
0.041,0.02,-0.01,0.23,0,0,0
0.041,0.02,-0.01,0.23,0,0,0
0.043,0.02,-0.01,0.23,0,0,0
0.045,0.02,-0.01,0.23,0,0,0
0.048,0.02,-0.01,0.23,0,0.01,0
0.063,0.02,-0.01,0.23,0,0.01,0
0.063,0.02,-0.01,0.23,0,0,0
0.064,0.02,-0.01,0.23,0,0.01,0
0.064,0.02,-0.01,0.23,0,0.01,0
0.064,0.02,-0.01,0.23,0,0.01,0
0.064,0.02,-0.01,0.23,0,0.01,0
0.064,0.02,-0.01,0.23,0,0.01,0
0.064,0.02,-0.02,0.23,0,0.01,0
0.065,0.02,-0.02,0.23,0,0.01,0
0.065,0.02,-0.02,0.23,0,0.01,0
0.065,0.02,-0.02,0.23,0,0,0
0.066,0.02,-0.02,0.23,0,0,0
0.068,0.02,-0.02,0.23,0,0,0
0.071,0.02,-0.02,0.23,0,0,0
0.071,0.02,-0.02,0.22,0,0,0
0.071,0.02,-0.02,0.22,0,0,0
0.073,0.02,-0.02,0.22,0,0,0
0.075,0.02,-0.02,0.22,0,0,0
0.077,0.02,-0.02,0.22,0,0,0
0.08,0.02,-0.02,0.22,0,0,0
0.081,0.02,-0.02,0.22,0,0,0
0.081,0.02,-0.02,0.22,0,0,0
0.086,0.02,-0.02,0.22,0,0,0
0.086,0.02,-0.02,0.22,0,0,0
0.087,0.02,-0.02,0.22,0,0,0
0.103,0.02,-0.02,0.22,0,0,0
0.103,0.02,-0.02,0.22,0,0,0
0.103,0.02,-0.02,0.22,0,0,0
0.103,0.02,-0.02,0.22,0,0,0
0.103,0.02,-0.02,0.22,0,0,0
0.104,0.02,-0.02,0.22,0,0,0
0.104,0.02,-0.02,0.22,0,0,0
0.104,0.01,-0.01,0.23,0,0,0
0.104,0.01,-0.01,0.23,0,0,0
0.104,0.01,-0.01,0.23,0,0,0
0.105,0.01,-0.01,0.23,0,0,0
0.108,0.01,-0.01,0.23,0,0,0
0.112,0.01,-0.01,0.23,0,0,0
0.112,0.01,-0.01,0.23,0,0,0
0.112,0,-0.01,0.23,0,0,0
0.119,0,-0.01,0.23,0,0,0
0.119,0,-0.01,0.23,0,0,0
0.119,0,-0.01,0.23,0,0,0
0.12,0,-0.01,0.23,0,0,0
0.121,0,-0.01,0.23,0,0,0
0.121,0,-0.01,0.23,0,0,0
0.123,0,-0.01,0.23,0,0,0
0.125,0,-0.01,0.23,0,0,0
0.128,0,-0.01,0.23,0,0,0
0.143,0,-0.01,0.23,0,0,0
0.143,0,-0.01,0.23,0,0,0
0.144,0,-0.01,0.23,0,0,0
0.144,0,-0.01,0.23,0,0,0
0.144,0,-0.01,0.23,0,0,0
0.144,0,-0.01,0.23,0,0,0
0.144,0,-0.01,0.23,0,0,0
0.144,0.01,-0.01,0.22,0,0,0
0.145,0.01,-0.01,0.22,0,0,0
0.145,0.01,-0.01,0.22,0,0,0
0.145,0.01,-0.01,0.22,0,0,0
0.145,0.01,-0.01,0.22,0,0,0
0.148,0.01,-0.01,0.22,0,0,0
0.151,0.01,-0.01,0.22,0,0,0
0.151,0.01,-0.01,0.22,0,0,0
0.151,0.01,-0.01,0.22,0,0,0
0.154,0.01,-0.01,0.22,0,0,0
0.155,0.01,-0.01,0.22,0,0,0
0.157,0.01,-0.01,0.22,0,0,0
0.16,0.01,-0.01,0.22,0,0,0
0.16,0.01,-0.01,0.22,0,0,0
0.162,0.01,-0.01,0.22,0,0,0
0.163,0.01,-0.01,0.22,0,0,0
0.165,0.01,-0.01,0.22,0,0,0
0.168,0.01,-0.01,0.22,0,0,0
0.182,0.01,-0.01,0.22,0,0,0
0.183,0.01,-0.01,0.22,0,0,0
0.183,0.01,-0.01,0.22,0,0,0
0.183,0.01,-0.01,0.22,0,0,0
0.183,0.01,-0.01,0.22,0,0,0
0.184,0.01,-0.01,0.22,0,0,0
0.184,0.01,-0.01,0.22,0,0,0
0.184,0.01,-0.01,0.22,0,0,0
0.184,0.01,-0.01,0.22,0,0,0
0.184,0.01,-0.01,0.22,0,0,0
0.186,0.01,-0.01,0.22,0,0,0
0.188,0.01,-0.01,0.22,0,0,0
0.191,0.01,-0.01,0.22,0,0,0
0.191,0.01,-0.01,0.23,0,0,0
0.192,0.01,-0.01,0.23,0,0,0
0.194,0.01,-0.01,0.23,0,0,0
0.195,0.01,-0.01,0.23,0,0,0
0.197,0.01,-0.01,0.23,0,0.01,0
0.2,0.01,-0.01,0.23,0,0,0
0.201,0.01,-0.01,0.22,0,0,0
0.201,0.01,-0.01,0.22,0,0,0
0.204,0.01,-0.01,0.22,0,0,0
0.205,0.01,-0.01,0.22,0,0,0
0.207,0.01,-0.01,0.22,0,0,0
0.221,0.01,-0.01,0.22,0,0,0
0.221,0.01,-0.01,0.22,0,0,0
0.222,0.01,-0.01,0.22,0,0,0
0.222,0.01,-0.01,0.22,0,0,0
0.222,0.01,-0.01,0.22,0,0,0
0.222,0.01,-0.01,0.22,0,0,0
0.222,0.01,0,0.22,0,0,0
0.222,0.01,0,0.22,0,0,0
0.222,0.01,0,0.22,0,0,0
0.224,0.01,0,0.22,0,0,0
0.225,0.01,0,0.22,0,0,0
0.228,0.01,0,0.22,0,0,0
0.232,0.01,0,0.22,0,0,0
0.232,0.01,0,0.22,0,0,0
0.232,0.01,0,0.22,0,0,0
0.234,0.01,0,0.22,0,0,0
0.236,0.01,0,0.22,0,0,0
0.238,0.01,0,0.22,0,0,0
0.24,0.01,0,0.22,0,0,0
0.24,0.02,0,0.22,0,0,0
0.241,0.02,0,0.22,0,0,0
0.243,0.02,0,0.22,0,0,0
0.246,0.02,0,0.22,-0.01,0,0
0.248,0.02,0,0.22,0,0,0
0.262,0.02,0,0.22,0,0,0
0.263,0.02,0,0.22,0,0,0
0.263,0.02,0,0.22,0,0,0
0.263,0.02,0,0.22,0,0,0
0.263,0.02,0,0.22,0,0,0
0.263,0.02,0,0.22,0,0,0
0.263,0.02,0,0.22,0,0,0
0.264,0.02,0,0.23,0,0,0
0.264,0.02,0,0.23,0,0,0
0.264,0.02,0,0.23,0,0,0
0.264,0.02,0,0.23,0,0,0
0.265,0.02,0,0.23,0,0,0
0.267,0.02,0,0.23,0,0,0
0.271,0.02,0,0.23,0,0,0
0.271,0.05,0.01,0.22,0,0,0
0.271,0.05,0.01,0.22,0,0,0
0.273,0.05,0.01,0.22,0,0,0
0.275,0.05,0.01,0.22,0,0,0
0.277,0.05,0.01,0.22,0,0,0
0.281,0.05,0.01,0.22,0,0,0
0.281,0.03,-0.03,0.24,0,0,0
0.281,0.03,-0.03,0.24,0,0,0
0.283,0.03,-0.03,0.24,0,0,0
0.285,0.03,-0.03,0.24,0,0,0
0.287,0.03,-0.03,0.24,0,0,0
0.303,0.03,-0.03,0.24,0,0,0
0.303,0.03,-0.03,0.24,0,0,0
0.304,0.03,-0.03,0.24,0,0,0
0.304,0.03,-0.03,0.24,0,0,0
0.304,0.03,-0.03,0.24,0,0,0
0.304,0.03,-0.03,0.24,0,0,0
0.304,0.03,-0.03,0.24,0,0,0
0.305,0.02,-0.05,0.21,0,0,0
0.305,0.02,-0.05,0.21,0,0,0
0.305,0.02,-0.05,0.21,0,0,0
0.305,0.02,-0.05,0.21,0,0,0
0.305,0.02,-0.05,0.21,0,0,0
0.307,0.02,-0.05,0.21,0,0,0
0.312,0.02,-0.05,0.21,0,0,0
0.312,0.02,-0.05,0.21,0,0,0
0.312,0,-0.02,0.22,0,0,0
0.319,0,-0.02,0.22,0,0,0
0.32,0,-0.02,0.22,0,0,0
0.32,0,-0.02,0.22,0,0,0
0.321,0,-0.02,0.22,0,0,0
0.321,0,0.01,0.24,0,0,0
0.322,0,0.01,0.24,0,0,0
0.324,0,0.01,0.24,0,0,0
0.325,0,0.01,0.24,0,0,0
0.327,0,0.01,0.24,0,0,0
0.342,0,0.01,0.24,0.01,0,0
0.343,0,0.01,0.24,0,0,0
0.343,0,0.01,0.24,0,0,0
0.343,0,0.01,0.24,0,0,0
0.343,0,0.01,0.24,0,0,0
0.344,0,0.01,0.24,0,0,0
0.344,0,0.01,0.24,0,0,0
0.344,0.01,0.01,0.26,0,0,0
0.344,0.01,0,0.26,0,0,0
0.344,0.01,0,0.26,0,0,0
0.346,0.01,0,0.26,0,0,0
0.348,0.01,0,0.26,0,0,0
0.351,0.01,0,0.26,0,0,0
0.351,0.02,0.02,0.22,0,0,0
0.351,0.02,0.02,0.22,0,0,0
0.353,0.02,0.02,0.22,0,0,0
0.355,0.02,0.02,0.22,0,0,0
0.357,0.02,0.02,0.22,0,0,0
0.36,0.02,0.02,0.22,0,0,0
0.36,0.03,0.02,0.23,0,0,0
0.362,0.03,0.02,0.23,0,0,0
0.363,0.03,0.02,0.23,0,0,0
0.366,0.03,0.02,0.23,0,0,0
0.368,0.03,0.02,0.23,0,0,0
0.382,0.03,0.02,0.23,0,0,0
0.383,0.03,0.02,0.23,0,0,0
0.386,0.03,0.02,0.23,0,0,0
0.386,0.03,0.02,0.23,0,0,0
0.386,0.03,0.02,0.23,0,0,0
0.386,0.03,0.02,0.23,0,0,0
0.386,0.03,0.02,0.23,0,0,0
0.387,0.03,-0.03,0.21,0,0,0
0.387,0.03,-0.03,0.21,0,0,0
0.387,0.03,-0.03,0.21,0,0,0
0.387,0.03,-0.03,0.21,0,0,0
0.387,0.03,-0.03,0.21,0,0,0
0.39,0.03,-0.03,0.21,0,0,0
0.391,0.02,-0.05,0.22,0,0,0
0.391,0.02,-0.05,0.22,0,0,0
0.393,0.02,-0.05,0.22,0,0,0
0.396,0.02,-0.05,0.22,0,0,0
0.397,0.02,-0.05,0.22,0,0,0
0.401,0.02,-0.05,0.22,0,0,0
0.401,0.03,-0.03,0.21,0,0,0
0.401,0.03,-0.03,0.21,0,0,0
0.404,0.03,-0.03,0.21,0,0,0
0.405,0.03,-0.03,0.21,0,0,0
0.408,0.03,-0.03,0.21,0,0,0
0.423,0.03,-0.03,0.21,0,0,0
0.423,0.03,-0.03,0.21,0,0,0
0.424,0.03,-0.03,0.21,0,0,0
0.424,0.03,-0.03,0.21,0,0,0
0.424,0.03,-0.03,0.21,0,0,0
0.424,0.03,-0.03,0.21,0,0,0
0.424,0.03,-0.03,0.21,0,0,0
0.425,0.04,0.02,0.25,0,0,0
0.425,0.04,0.02,0.25,0,0,0
0.425,0.04,0.02,0.25,0,0,0
0.425,0.04,0.02,0.25,0,0,0
0.425,0.04,0.02,0.25,0,0.01,0
0.427,0.04,0.02,0.25,0,0,0
0.433,0.04,0.02,0.25,0,0,0
0.434,0.03,0,0.23,0,0,0
0.434,0.03,0,0.23,0,0,0
0.434,0.03,0,0.23,0,0,0
0.437,0.03,0,0.23,0,0,0
0.439,0.03,0,0.23,0,0,0
0.443,0.03,0,0.23,0,0,0
0.443,0.03,0,0.23,0,0,0
0.444,0.02,0,0.23,0,0,0
0.444,0.02,0,0.23,0,0,0
0.446,0.02,0,0.23,0,0,0
0.447,0.02,0,0.23,0,0,0
0.463,0.02,0,0.23,0,0,0
0.464,0.02,0,0.23,0,0,0
0.464,0.02,0,0.23,0,0,0
0.464,0.02,0,0.23,0,0,0
0.464,0.02,0,0.23,0,0,0
0.464,0.02,0,0.23,0,0,0
0.465,0.02,0,0.23,0,0,0
0.465,0.02,0,0.21,0,0,0
0.465,0.02,0,0.21,0,0,0
0.465,0.02,0,0.21,0,0,0
0.465,0.02,0,0.21,0,0,0
0.468,0.02,0,0.21,0,0,0
0.472,0.02,0,0.21,0,0,0
0.472,0.02,0,0.21,0,0,0
0.474,0,-0.02,0.23,0,0,0
0.474,0,-0.02,0.23,0,0,0
0.475,0,-0.02,0.23,0,0,0
0.478,0,-0.02,0.23,0,0,0
0.48,0,-0.02,0.23,0,0,0
0.481,0.01,-0.04,0.22,0,0,0
0.481,0.01,-0.04,0.22,0,0,0
0.483,0.01,-0.04,0.22,0,0,0
0.485,0.01,-0.04,0.22,0,0,0
0.487,0.01,-0.04,0.22,0,0,0
0.502,0.01,-0.04,0.22,0,0,0
0.503,0.01,-0.04,0.22,0,0,0
0.503,0.01,-0.04,0.22,0,0,0
0.503,0.01,-0.04,0.22,0,0,0
0.503,0.01,-0.04,0.22,0,0,0
0.504,0.01,-0.04,0.22,0,0,0
0.504,0.01,-0.04,0.22,0,0,0
0.504,0.03,0,0.23,0,0,0
0.504,0.03,0,0.23,0,0,0
0.504,0.03,0,0.23,0,0,0
0.506,0.03,0,0.23,0,0,0
0.507,0.03,0,0.23,0,0,0
0.51,0.03,0,0.23,0,0,0
0.511,0.02,0.01,0.25,0,0,0
0.511,0.02,0.01,0.25,0,0,0
0.516,0.02,0.01,0.25,0,0,0
0.516,0.02,0.01,0.25,0,0,0
0.518,0.02,0.01,0.25,0,0,0
0.521,0.02,0.01,0.25,0,0,0
0.521,0.04,-0.01,0.23,0,0,0
0.522,0.04,-0.01,0.23,0,0,0
0.524,0.04,-0.01,0.23,0,0,0
0.526,0.04,-0.01,0.23,0,0,0
0.527,0.04,-0.01,0.23,0,0,0
0.544,0.04,-0.01,0.23,0,0,0
0.545,0.04,-0.01,0.23,0,0,0
0.545,0.04,-0.01,0.23,0,0,0
0.545,0.04,-0.01,0.23,0,0,0
0.545,0.04,-0.01,0.23,0,0,0
0.548,0.04,-0.01,0.23,0,0,0
0.548,0.04,-0.01,0.23,0,0,0
0.549,0.02,-0.01,0.22,0,0,0
0.549,0.02,-0.01,0.22,0,0,0
0.549,0.02,-0.01,0.22,0,0,0
0.549,0.02,-0.01,0.22,0,0,0
0.549,0.02,-0.01,0.22,0,0,0
0.55,0.02,-0.01,0.22,0,0,0
0.551,0.02,-0.01,0.22,0,0,0
0.551,0.04,0.01,0.22,0,0,0
0.552,0.04,0.01,0.22,0,0,0
0.554,0.04,0.01,0.22,0,0,0
0.556,0.04,0.01,0.22,0,0,0
0.557,0.04,0.01,0.22,0,0,0
0.561,0.04,0.01,0.22,0,0,0
0.561,0.03,-0.01,0.19,0,0,0
0.562,0.03,-0.01,0.19,0,0,0
0.563,0.03,-0.01,0.19,0,0,0
0.571,0.03,-0.01,0.19,0,0,0
0.571,0.03,-0.01,0.19,0,0,0
0.583,0.03,-0.01,0.19,0,0,0
0.583,0.03,-0.01,0.19,0,0,0
0.583,0.03,-0.01,0.19,0,0,0
0.583,0.03,-0.01,0.19,0,0,0
0.584,0.03,-0.01,0.19,0,0,0
0.584,0.03,-0.01,0.19,0,0,0
0.584,0.03,-0.01,0.19,0,0,0
0.584,0.02,-0.02,0.21,0,0,0
0.584,0.02,-0.02,0.21,0,0,0
0.585,0.02,-0.02,0.21,0,0,0
0.585,0.02,-0.02,0.21,0,0,0
0.586,0.02,-0.02,0.21,0,0,0
0.587,0.02,-0.02,0.21,0,0,0
0.591,0.02,-0.02,0.21,0,0,0
0.591,0.01,0,0.23,0,0,0
0.592,0.01,0,0.23,0,0,0
0.594,0.01,0,0.23,0,0,0
0.596,0.01,0,0.23,0,0,0
0.598,0.01,0,0.23,0,0,0
0.601,0.01,0,0.23,0,0,0
0.602,0.01,0,0.23,0,0,0
0.602,0.02,0.02,0.24,0,0,0
0.604,0.02,0.02,0.24,0,0,0
0.605,0.02,0.02,0.24,0,0,0
0.607,0.02,0.02,0.24,0,0,0
0.624,0.02,0.02,0.24,0,0,0
0.625,0.02,0.02,0.24,0,0,0
0.625,0.02,0.02,0.24,0,0,0
0.625,0.02,0.02,0.24,0,0,0
0.625,0.02,0.02,0.24,0,0.01,0
0.626,0.02,0.02,0.24,0,0.01,0
0.626,0.02,0.02,0.24,0,0.01,0
0.626,0.03,0.01,0.22,0,0.01,0
0.626,0.03,0.01,0.22,0,0.01,0
0.627,0.03,0.01,0.22,0,0.01,0
0.627,0.03,0.01,0.22,0,0,0
0.628,0.03,0.01,0.22,0,0,0
0.629,0.03,0.01,0.22,0,0,0
0.635,0.03,0.01,0.22,0,0,0
0.636,0.01,-0.04,0.19,0,0,0
0.636,0.01,-0.04,0.19,0,0,0
0.636,0.01,-0.04,0.19,0,0,0
0.637,0.01,-0.04,0.19,0,0,0
0.639,0.01,-0.04,0.19,0,0,0
0.642,0.01,-0.04,0.19,0,0,0
0.642,0.01,-0.04,0.19,0,0,0
0.642,0.03,-0.03,0.22,0,0,0
0.644,0.03,-0.03,0.22,0,0,0
0.654,0.03,-0.03,0.22,0,0,0
0.655,0.03,-0.03,0.22,0,0,0
0.663,0.03,-0.03,0.22,0,0,0
0.664,0.03,-0.03,0.22,0,-0.01,0
0.664,0.03,-0.03,0.22,0,0,0
0.664,0.03,-0.03,0.22,0,0,0
0.664,0.03,-0.03,0.22,0,0,0
0.664,0.03,-0.03,0.22,0,0,0
0.665,0.03,-0.03,0.22,0,0,0
0.665,0.05,-0.04,0.22,0,0,0
0.665,0.05,-0.04,0.22,0,0,0
0.665,0.05,-0.04,0.22,0,0,0
0.665,0.05,-0.04,0.22,0,0,0
0.666,0.05,-0.04,0.22,0,0,0
0.667,0.05,-0.04,0.22,0,0,0
0.672,0.05,-0.04,0.22,0,0,0
0.672,0.05,-0.04,0.22,0,0,0
0.672,0.03,-0.03,0.22,0,0,0
0.674,0.03,-0.03,0.22,0,0,0
0.676,0.03,-0.03,0.22,0,0,0
0.677,0.03,-0.03,0.22,0,0,0
0.682,0.03,-0.03,0.22,0,0,0
0.682,0.02,-0.01,0.24,0,0,0
0.682,0.02,-0.01,0.24,0,0,0
0.683,0.02,-0.01,0.24,0,0,0
0.688,0.02,-0.01,0.24,0,0,0
0.688,0.02,-0.01,0.24,0,0,0
0.703,0.02,-0.01,0.24,0,0,0
0.703,0.02,-0.01,0.24,0,0.01,0
0.703,0.02,-0.01,0.24,0,0.01,0
0.704,0.02,-0.01,0.24,0,0.01,0
0.704,0.02,-0.01,0.24,0,0.01,0
0.706,0.02,-0.01,0.24,0,0,0
0.707,0.02,-0.01,0.24,0,0,0
0.707,0.03,0.02,0.25,0,0,0
0.707,0.03,0.02,0.25,0,0,0
0.708,0.03,0.02,0.25,0,0,0
0.709,0.03,0.02,0.25,0,0,0
0.709,0.03,0.02,0.25,0,0,0
0.712,0.03,0.02,0.25,0,0,0
0.712,0.03,0.02,0.25,0,0,0
0.717,0,-0.01,0.23,0,0,0
0.718,0,-0.01,0.23,0,0,0
0.718,0,-0.01,0.23,0,0,0
0.722,0,-0.01,0.23,0,0,0
0.723,0,-0.01,0.23,0,0,0
0.723,0,-0.03,0.21,0,0,0
0.723,0,-0.03,0.21,0,0,0
0.724,0,-0.03,0.21,0,0,0
0.726,0,-0.03,0.21,0,0,0
0.728,0,-0.03,0.21,0,0,0
0.744,0,-0.03,0.21,0,0,0
0.745,0,-0.03,0.21,0,0,0
0.745,0,-0.03,0.21,0,0,0
0.745,0,-0.03,0.21,0,0,0
0.745,0,-0.03,0.21,0,0,0
0.745,0,-0.03,0.21,0,0,0
0.746,0,-0.03,0.21,0,0,0
0.746,0,-0.03,0.21,0,0,0
0.746,0.01,-0.02,0.23,0,0,0
0.746,0.01,-0.02,0.23,0,0,0
0.747,0.01,-0.02,0.23,0,0,0
0.748,0.01,-0.02,0.23,0,0,0
0.752,0.01,-0.02,0.23,0,0,0
0.752,0.03,-0.01,0.23,0,0,0
0.752,0.03,-0.01,0.23,0,0,0
0.753,0.03,-0.01,0.23,0,0,0
0.755,0.03,-0.01,0.23,0,0,0
0.757,0.03,-0.01,0.23,0,0,0
0.76,0.03,-0.01,0.23,0,0,0
0.761,0.02,-0.02,0.24,0,0,0
0.762,0.02,-0.02,0.24,0,0,0
0.764,0.02,-0.02,0.24,0,0,0
0.766,0.02,-0.02,0.24,0,0,0
0.769,0.02,-0.02,0.24,0,0,0
0.785,0.02,-0.02,0.24,0,0,0
0.785,0.02,-0.02,0.24,-0.01,-0.01,0
0.786,0.02,-0.02,0.24,-0.01,-0.01,0
0.786,0.02,-0.02,0.24,-0.01,-0.01,0
0.786,0.03,0.01,0.23,-0.01,-0.01,0
0.787,0.03,0.01,0.23,-0.01,-0.01,0
0.787,0.03,0.01,0.23,-0.01,-0.01,0
0.787,0.03,0.01,0.23,0,-0.01,0
0.787,0.03,0.01,0.23,0,-0.01,0
0.788,0.03,0.01,0.23,-0.01,-0.01,0
0.788,0.03,0.01,0.23,-0.01,-0.02,0
0.788,0.03,0.01,0.23,-0.01,-0.02,0
0.791,0.03,0.01,0.23,-0.01,-0.02,0
0.791,0,0.01,0.19,-0.01,-0.02,0
0.792,0,0.01,0.19,-0.02,-0.03,0
0.794,0,0.01,0.19,-0.02,-0.03,0
0.797,0,0.01,0.19,-0.02,-0.04,0
0.799,0,0.01,0.19,-0.02,-0.05,0
0.802,0,0.01,0.19,-0.03,-0.05,0
0.802,0,0.01,0.19,-0.03,-0.05,0
0.802,0.01,0.02,0.13,-0.03,-0.05,0
0.803,0.01,0.02,0.13,-0.03,-0.05,0
0.805,0.01,0.02,0.13,-0.02,-0.04,0
0.807,0.01,0.02,0.13,-0.01,-0.02,0
0.823,0.01,0.02,0.13,0,0,0
0.824,0.01,0.02,0.13,0.02,0.03,0
0.824,0.01,0.02,0.13,0.02,0.03,0
0.824,0.01,0.02,0.13,0.02,0.03,0
0.825,0.01,0.02,0.13,0.02,0.03,0
0.825,0.01,0.02,0.13,0.02,0.03,0
0.825,0.01,0.02,0.13,0.02,0.03,0
0.825,0.01,-0.05,0.24,0.02,0.03,0
0.826,0.02,-0.06,0.24,0.02,0.03,0
0.826,0.02,-0.06,0.24,0.02,0.04,0
0.827,0.02,-0.06,0.24,0.02,0.04,0
0.828,0.02,-0.06,0.24,0.02,0.04,0
0.834,0.02,-0.06,0.24,0.02,0.04,0
0.835,0.02,-0.06,0.24,0.02,0.04,0
0.835,0.03,-0.02,0.22,0.02,0.04,0
0.835,0.03,-0.02,0.22,0.02,0.04,0
0.839,0.03,-0.02,0.22,0.02,0.03,0
0.84,0.03,-0.02,0.22,0.01,0.03,0
0.841,0.03,-0.02,0.22,0.01,0.02,0
0.841,0.04,0.03,0.15,0.01,0.02,0
0.841,0.04,0.03,0.15,0.01,0.01,0
0.844,0.04,0.03,0.15,0.01,0.01,0
0.847,0.04,0.03,0.15,0,0,0
0.848,0.04,0.03,0.15,-0.01,-0.01,0
0.865,0.04,0.03,0.15,-0.01,-0.01,0
0.865,0.04,0.03,0.15,-0.01,-0.02,0
0.865,0.04,0.03,0.15,-0.01,-0.02,0
0.866,0.04,0.03,0.15,-0.01,-0.02,0
0.866,0.04,0.03,0.15,-0.01,-0.02,0
0.866,0.04,0.03,0.15,-0.01,-0.02,0
0.866,0.04,0.03,0.15,-0.01,-0.02,0
0.866,0.04,0.03,0.15,-0.01,-0.02,0
0.867,0.04,0,0.25,-0.01,-0.02,0
0.87,0.04,0,0.25,-0.01,-0.02,0
0.87,0.04,0,0.25,-0.01,-0.02,0
0.87,0.04,0,0.25,-0.01,-0.02,0
0.871,0.04,0,0.25,-0.01,-0.02,0
0.871,0.05,-0.01,0.25,-0.01,-0.02,0
0.872,0.05,-0.01,0.25,-0.01,-0.02,0
0.874,0.05,-0.01,0.25,-0.01,-0.01,0
0.876,0.05,-0.01,0.25,0,-0.01,0
0.878,0.05,-0.01,0.25,0,-0.01,0
0.88,0.05,-0.01,0.25,0,0,0
0.881,0.03,-0.02,0.31,0,0,0
0.881,0.03,-0.02,0.31,0,0.01,0
0.884,0.03,-0.02,0.31,0.01,0.02,0
0.887,0.03,-0.02,0.31,0.01,0.03,0
0.889,0.03,-0.02,0.31,0.02,0.04,0
0.902,0.03,-0.02,0.31,0.02,0.05,0
0.903,0.03,-0.02,0.31,0.03,0.06,0
0.903,0.03,-0.02,0.31,0.03,0.06,0
0.903,0.03,-0.02,0.31,0.03,0.06,0
0.903,0.03,-0.02,0.31,0.03,0.06,0
0.904,0.03,-0.02,0.31,0.03,0.06,0
0.904,0.03,-0.02,0.31,0.03,0.06,0
0.904,0,-0.03,0.17,0.03,0.06,0
0.904,0.01,-0.04,0.17,0.03,0.06,0
0.904,0.01,-0.04,0.17,0.03,0.05,0
0.905,0.01,-0.04,0.17,0.02,0.05,0
0.908,0.01,-0.04,0.17,0.02,0.04,0
0.912,0.01,-0.04,0.17,0.02,0.04,0
0.912,0,-0.06,0.15,0.02,0.04,0
0.912,0,-0.06,0.15,0.02,0.03,0
0.918,0,-0.06,0.15,0.02,0.03,0
0.919,0,-0.06,0.15,0.01,0.03,0
0.919,0,-0.06,0.15,0.01,0.02,0
0.923,0,-0.06,0.15,0.01,0.02,0
0.923,0,-0.02,0.19,0.01,0.02,0
0.923,0,-0.02,0.19,0.01,0.02,0
0.924,0,-0.02,0.19,0.01,0.02,0
0.926,0,-0.02,0.19,0.01,0.02,0
0.929,0,-0.02,0.19,0.01,0.01,0
0.943,0,-0.02,0.19,0.01,0.01,0
0.944,0,-0.02,0.19,0,-0.01,0
0.944,0,-0.02,0.19,0,-0.01,0
0.944,0,-0.02,0.19,0,-0.01,0
0.944,0,-0.02,0.19,0,-0.01,0
0.944,0,-0.02,0.19,0,-0.01,0
0.945,0,-0.02,0.19,0,-0.01,0
0.945,0.03,0.03,0.18,0,-0.01,0
0.945,0.03,0.03,0.18,0,-0.01,0
0.945,0.03,0.03,0.18,-0.01,-0.01,0
0.945,0.03,0.03,0.18,-0.01,-0.02,0
0.948,0.03,0.03,0.18,-0.01,-0.02,0
0.952,0.03,0.03,0.18,-0.01,-0.02,0
0.952,0.03,0.03,0.18,-0.01,-0.02,0
0.953,0.03,0.03,0.23,-0.01,-0.02,0
0.954,0.03,0.03,0.23,-0.01,-0.02,0
0.955,0.03,0.03,0.23,-0.01,-0.02,0
0.957,0.03,0.03,0.23,-0.01,-0.02,0
0.961,0.03,0.03,0.23,0,-0.01,0
0.961,0.03,-0.01,0.26,0,-0.01,0
0.962,0.03,-0.01,0.26,0,-0.01,0
0.964,0.03,-0.01,0.26,0,-0.01,0
0.966,0.03,-0.01,0.26,0,0,0
0.968,0.03,-0.01,0.26,0,0,0
0.984,0.03,-0.01,0.26,0,0,0
0.985,0.03,-0.01,0.26,0.01,0.02,0
0.985,0.03,-0.01,0.26,0.01,0.02,0
0.985,0.03,-0.01,0.26,0.01,0.02,0
0.985,0.03,-0.01,0.26,0.01,0.01,0
0.986,0.03,-0.01,0.26,0.01,0.02,0
0.986,0.03,-0.01,0.26,0.01,0.02,0
0.986,0.03,-0.01,0.26,0.01,0.02,0
0.987,0.04,-0.03,0.2,0.01,0.02,0
0.987,0.04,-0.03,0.2,0.01,0.02,0
0.987,0.04,-0.03,0.2,0.01,0.01,0
0.988,0.04,-0.03,0.2,0.01,0.01,0
0.991,0.04,-0.03,0.2,0.01,0.01,0
0.991,0.01,-0.02,0.18,0.01,0.01,0
0.992,0.01,-0.02,0.18,0.01,0.01,0
0.994,0.01,-0.02,0.18,0.01,0.01,0
0.996,0.01,-0.02,0.18,0,0.01,0
0.998,0.01,-0.02,0.18,0.01,0.01,0
1.002,0.01,-0.02,0.18,0.01,0.01,0
1.002,0.01,-0.02,0.18,0.01,0.01,0
1.002,0.02,-0.02,0.22,0.01,0.01,0
1.004,0.02,-0.02,0.22,0,0.01,0
1.006,0.02,-0.02,0.22,0.01,0.01,0
1.008,0.02,-0.02,0.22,0,0.01,0
1.024,0.02,-0.02,0.22,0.01,0.01,0
1.024,0.02,-0.02,0.22,0,0,0
1.024,0.02,-0.02,0.22,0,0,0
1.024,0.02,-0.02,0.22,0,0,0
1.025,0.02,-0.02,0.22,0,0,0
1.025,0.02,-0.02,0.22,0,0,0
1.025,0.02,-0.02,0.22,0,0,0
1.025,0.02,-0.02,0.22,0,-0.01,0
1.025,0.04,0.01,0.2,0,-0.01,0
1.025,0.04,0.01,0.2,0,-0.01,0
1.026,0.04,0.01,0.2,-0.01,-0.02,0
1.028,0.04,0.01,0.2,-0.02,-0.03,0
1.036,0.04,0.01,0.2,-0.02,-0.04,0
1.039,0.03,0.02,0.07,-0.02,-0.04,0
1.039,0.03,0.02,0.07,-0.02,-0.04,0
1.04,0.03,0.02,0.07,-0.02,-0.04,0
1.04,0.03,0.02,0.07,-0.02,-0.04,0
1.04,0.03,0.02,0.07,-0.01,-0.03,0
1.041,0.03,0.02,0.07,-0.01,-0.02,0
1.041,0.09,0,0.38,-0.01,-0.02,0
1.042,0.09,0,0.38,0,0,0
1.043,0.09,0,0.38,0.01,0.01,0
1.046,0.09,0,0.38,0.01,0.02,0
1.048,0.09,0,0.38,0.02,0.03,0
1.068,0.09,0,0.38,0.02,0.04,0
1.069,0.09,0,0.38,0.01,0.03,0
1.069,0.09,0,0.38,0.01,0.03,0
1.069,0.09,0,0.38,0.01,0.03,0
1.069,0.09,0,0.38,0.01,0.03,0
1.069,0.09,0,0.38,0.01,0.02,0
1.069,0.09,0,0.38,0.01,0.02,0
1.07,0.09,0,0.38,0,0.01,0
1.07,0.09,0,0.38,0,0,0
1.07,-0.03,-0.01,0.13,0,0,0
1.07,-0.02,-0.01,0.12,0,0,0
1.07,-0.02,-0.01,0.12,0,0,0
1.071,-0.02,-0.01,0.12,0,-0.01,0
1.071,0.01,-0.05,0.18,0,-0.01,0
1.071,0.01,-0.05,0.18,0,-0.01,0
1.073,0.01,-0.05,0.18,0,0,0
1.075,0.01,-0.05,0.18,0,0,0
1.077,0.01,-0.05,0.18,0,0,0
1.08,0.01,-0.05,0.18,0.01,0.01,0
1.081,0,-0.04,0.31,0.01,0.01,0
1.081,0,-0.04,0.31,0.01,0.02,0
1.083,0,-0.04,0.31,0.01,0.02,0
1.085,0,-0.04,0.31,0.02,0.03,0
1.087,0,-0.04,0.31,0.02,0.04,0
1.103,0,-0.04,0.31,0.02,0.04,0
1.103,0,-0.04,0.31,0.02,0.04,0
1.103,0,-0.04,0.31,0.02,0.04,0
1.104,0,-0.04,0.31,0.02,0.04,0
1.104,0,-0.04,0.31,0.02,0.03,0
1.104,0,-0.04,0.31,0.02,0.03,0
1.104,0,-0.04,0.31,0.02,0.03,0
1.104,0,0,0.2,0.02,0.03,0
1.105,0.01,0,0.2,0.02,0.03,0
1.105,0.01,0,0.2,0.02,0.03,0
1.105,0.01,0,0.2,0.01,0.03,0
1.105,0.01,0,0.2,0.01,0.02,0
1.107,0.01,0,0.2,0.01,0.01,0
1.111,0.01,0,0.2,0.01,0.01,0
1.111,0.01,0,0.15,0.01,0.01,0
1.112,0.01,0,0.15,0,0.01,0
1.118,0.01,0,0.15,0,0,0
1.119,0.01,0,0.15,0,0,0
1.119,0.01,0,0.15,0,0,0
1.123,0.01,0,0.15,0,-0.01,0
1.124,0.03,0.01,0.19,0,-0.01,0
1.124,0.03,0.01,0.19,0,-0.01,0
1.125,0.03,0.01,0.19,0,-0.01,0
1.125,0.03,0.01,0.19,0,0,0
1.127,0.03,0.01,0.19,0,0,0
1.143,0.03,0.01,0.19,0,0,0
1.144,0.03,0.01,0.19,0,0.01,0
1.144,0.03,0.01,0.19,0,0.01,0
1.145,0.03,0.01,0.19,0,0.02,0.01
1.145,0.03,0.01,0.19,0,0.02,0.01
1.145,0.03,0.01,0.19,0.01,0.03,0
1.145,0.03,0.01,0.19,0.01,0.03,0
1.145,0.03,0.01,0.19,0.01,0.03,0
1.146,0.06,0,0.25,0.01,0.03,0
1.146,0.06,0,0.25,0.01,0.03,0
1.147,0.06,0,0.25,0.02,0.04,0
1.148,0.06,0,0.25,0.03,0.06,0
1.151,0.06,0,0.25,0.03,0.06,0
1.152,0.07,-0.04,0.33,0.03,0.06,0
1.152,0.07,-0.04,0.33,0.04,0.07,0
1.154,0.07,-0.04,0.33,0.04,0.07,0
1.156,0.07,-0.04,0.33,0.04,0.07,0
1.157,0.07,-0.04,0.33,0.03,0.07,0
1.161,0.07,-0.04,0.33,0.03,0.05,0
1.161,0,-0.03,0.11,0.03,0.05,0
1.161,0,-0.03,0.11,0.02,0.05,0
1.164,0,-0.03,0.11,0.02,0.04,0
1.165,0,-0.03,0.11,0.01,0.04,0
1.168,0,-0.03,0.11,0.01,0.03,0
1.183,0,-0.03,0.11,0.01,0.03,0
1.184,0,-0.03,0.11,0.02,0.04,0
1.184,0,-0.03,0.11,0.02,0.04,0
1.184,0,-0.03,0.11,0.02,0.04,0
1.185,0,-0.03,0.11,0.02,0.04,0
1.185,0,-0.03,0.11,0.02,0.03,0
1.185,0,-0.03,0.11,0.02,0.04,0
1.185,0.01,-0.01,0.19,0.02,0.04,0
1.186,0.02,-0.02,0.19,0.02,0.04,0
1.186,0.02,-0.02,0.19,0.02,0.05,0
1.186,0.02,-0.02,0.19,0.02,0.05,0
1.188,0.02,-0.02,0.19,0.03,0.06,0
1.191,0.02,-0.02,0.19,0.03,0.06,0
1.192,0.03,-0.03,0.28,0.03,0.06,0
1.192,0.03,-0.03,0.28,0.04,0.06,0
1.194,0.03,-0.03,0.28,0.03,0.06,0
1.197,0.03,-0.03,0.28,0.03,0.05,0
1.197,0.03,-0.03,0.28,0.02,0.04,0
1.201,0.03,-0.03,0.28,0.02,0.04,0
1.201,-0.02,-0.01,0.1,0.02,0.04,0
1.202,-0.02,-0.01,0.1,0.01,0.03,0
1.204,-0.02,-0.01,0.1,0.01,0.02,0
1.206,-0.02,-0.01,0.1,0,0.01,0
1.208,-0.02,-0.01,0.1,0,0,0
1.224,-0.02,-0.01,0.1,0,-0.01,0
1.224,-0.02,-0.01,0.1,-0.02,-0.05,0
1.224,-0.02,-0.01,0.1,-0.02,-0.05,0
1.225,-0.02,-0.01,0.1,-0.02,-0.06,0
1.225,-0.02,-0.01,0.1,-0.02,-0.06,0
1.225,-0.02,-0.01,0.1,-0.03,-0.07,0
1.225,-0.02,-0.01,0.1,-0.04,-0.08,0
1.225,-0.02,0.01,0.02,-0.04,-0.08,0
1.226,-0.02,0.01,0.02,-0.04,-0.08,0
1.226,-0.02,0.01,0.02,-0.04,-0.1,0
1.226,-0.02,0.01,0.02,-0.06,-0.13,0
1.228,-0.02,0.01,0.02,-0.08,-0.16,0
1.236,-0.02,0.01,0.02,-0.08,-0.17,0
1.237,-0.02,0.03,-0.05,-0.08,-0.17,0
1.237,-0.02,0.03,-0.05,-0.09,-0.19,0
1.237,-0.02,0.03,-0.05,-0.09,-0.2,0
1.237,-0.02,0.03,-0.05,-0.1,-0.2,0
1.238,-0.02,0.03,-0.05,-0.09,-0.19,0
1.242,-0.02,0.03,-0.05,-0.09,-0.18,0
1.242,0.11,-0.01,0.35,-0.09,-0.18,0
1.242,0.11,-0.01,0.35,-0.08,-0.15,0
1.244,0.11,-0.01,0.35,-0.07,-0.14,0
1.246,0.11,-0.01,0.35,-0.05,-0.11,0
1.248,0.11,-0.01,0.35,-0.03,-0.06,0
1.263,0.11,-0.01,0.35,0,0.01,0
1.263,0.11,-0.01,0.35,0.12,0.24,0
1.263,0.11,-0.01,0.35,0.12,0.27,0
1.264,0.11,-0.01,0.35,0.13,0.3,0
1.264,0.11,-0.01,0.35,0.13,0.3,0
1.264,0.11,-0.01,0.35,0.13,0.3,0
1.264,0.11,-0.01,0.35,0.13,0.3,0
1.265,0.22,-0.08,0.65,0.13,0.3,0
1.265,0.25,-0.09,0.65,0.13,0.3,0
1.265,0.25,-0.09,0.65,0.16,0.32,0
1.267,0.25,-0.09,0.65,0.16,0.34,0
1.268,0.25,-0.09,0.65,0.16,0.33,-0.01
1.271,0.25,-0.09,0.65,0.15,0.31,0
1.272,-0.04,-0.02,-0.16,0.15,0.31,0
1.272,-0.04,-0.02,-0.16,0.13,0.27,0
1.274,-0.04,-0.02,-0.16,0.12,0.25,0
1.275,-0.04,-0.02,-0.16,0.1,0.19,-0.01
1.277,-0.04,-0.02,-0.16,0.07,0.12,0
1.281,-0.04,-0.02,-0.16,0.02,0.03,0
1.281,-0.14,0.06,-0.75,0.02,0.03,0
1.281,-0.14,0.06,-0.75,0,-0.01,0
1.285,-0.14,0.06,-0.75,-0.04,-0.08,0
1.286,-0.14,0.06,-0.75,-0.08,-0.15,0
1.288,-0.14,0.06,-0.75,-0.08,-0.18,0
1.303,-0.14,0.06,-0.75,-0.11,-0.25,0
1.304,-0.14,0.06,-0.75,-0.19,-0.4,0
1.304,-0.14,0.06,-0.75,-0.19,-0.4,0
1.304,-0.14,0.06,-0.75,-0.19,-0.41,0
1.304,-0.14,0.06,-0.75,-0.19,-0.41,0
1.304,-0.14,0.06,-0.75,-0.19,-0.41,0
1.305,-0.14,0.06,-0.75,-0.2,-0.42,0
1.305,-0.14,0.06,-0.75,-0.2,-0.43,0
1.305,0.03,-0.03,0.23,-0.2,-0.43,0
1.305,-0.04,0,0.23,-0.2,-0.43,0
1.305,-0.08,0.02,0.23,-0.2,-0.43,0
1.306,-0.08,0.02,0.23,-0.21,-0.43,0
1.308,-0.08,0.02,0.23,-0.2,-0.41,0.01
1.311,-0.08,0.02,0.23,-0.19,-0.36,0.01
1.312,0.43,-0.18,0.62,-0.19,-0.36,0.01
1.312,0.43,-0.18,0.62,-0.15,-0.31,0
1.319,0.43,-0.18,0.62,-0.13,-0.27,0.01
1.32,0.43,-0.18,0.62,-0.09,-0.12,0.01
1.32,0.43,-0.18,0.62,0,-0.08,0.02
1.324,0.43,-0.18,0.62,0.02,0.01,0.02
1.325,0.15,-0.14,-1.48,0.02,0.01,0.02
1.325,0.15,-0.14,-1.48,-0.04,0.02,0
1.325,0.15,-0.14,-1.48,0,-0.01,0
1.327,0.15,-0.14,-1.48,0.01,-0.04,0
1.328,0.15,-0.14,-1.48,-0.03,-0.08,0
1.342,0.15,-0.14,-1.48,-0.02,-0.09,0
1.343,0.15,-0.14,-1.48,-0.01,-0.05,-0.01
1.343,0.15,-0.14,-1.48,-0.01,-0.05,-0.01
1.343,0.15,-0.14,-1.48,-0.01,-0.05,-0.01
1.343,0.15,-0.14,-1.48,-0.01,-0.05,-0.01
1.343,0.15,-0.14,-1.48,-0.02,-0.07,0
1.343,0.15,-0.14,-1.48,-0.02,-0.07,0
1.344,-0.14,0.04,0.28,-0.02,-0.07,0
1.344,-0.15,0.05,0.29,-0.02,-0.07,0
1.344,-0.15,0.05,0.29,-0.03,-0.08,-0.01
1.346,-0.15,0.05,0.29,-0.04,-0.08,-0.04
1.348,-0.15,0.05,0.29,-0.06,-0.07,-0.05
1.351,-0.15,0.05,0.29,-0.11,-0.06,-0.09
1.352,-0.15,0.05,0.29,-0.13,-0.07,-0.11
1.352,0.24,-0.51,-0.07,-0.13,-0.07,-0.11
1.353,0.24,-0.51,-0.07,-0.13,-0.08,-0.12
1.355,0.24,-0.51,-0.07,-0.1,-0.13,-0.13
1.357,0.24,-0.51,-0.07,-0.05,-0.25,-0.14
1.36,0.24,-0.51,-0.07,0,-0.4,-0.17
1.363,-0.44,-0.67,2.57,0,-0.4,-0.17
1.363,-0.44,-0.67,2.57,0.01,-0.45,-0.18
1.373,-0.44,-0.67,2.57,0.01,-0.55,-0.2
1.373,-0.44,-0.67,2.57,-0.01,-0.6,-0.2
1.374,-0.44,-0.67,2.57,-0.04,-0.61,-0.2
1.387,-0.44,-0.67,2.57,-0.05,-0.61,-0.2
1.388,-0.44,-0.67,2.57,-0.13,-0.44,-0.2
1.388,-0.44,-0.67,2.57,-0.13,-0.44,-0.2
1.389,-0.44,-0.67,2.57,-0.14,-0.41,-0.2
1.389,-0.44,-0.67,2.57,-0.16,-0.37,-0.2
1.389,-0.44,-0.67,2.57,-0.16,-0.37,-0.2
1.389,-0.44,-0.67,2.57,-0.16,-0.37,-0.2
1.389,-0.44,-0.67,2.57,-0.18,-0.34,-0.22
1.39,-0.44,-0.67,2.57,-0.21,-0.3,-0.25
1.39,-0.25,-0.64,-0.8,-0.21,-0.3,-0.25
1.39,-0.35,-0.63,-0.8,-0.21,-0.3,-0.25
1.39,-0.39,-0.62,-0.79,-0.21,-0.3,-0.25
1.391,-0.39,-0.62,-0.79,-0.23,-0.27,-0.28
1.391,-0.39,-0.62,-0.79,-0.26,-0.25,-0.3
1.392,0.33,-0.48,0.13,-0.26,-0.25,-0.3
1.392,0.33,-0.48,0.13,-0.26,-0.25,-0.31
1.394,0.33,-0.48,0.13,-0.28,-0.27,-0.32
1.398,0.33,-0.48,0.13,-0.28,-0.31,-0.32
1.399,0.33,-0.48,0.13,-0.28,-0.33,-0.31
1.4,0.31,-0.45,0.13,-0.28,-0.33,-0.31
1.4,0.31,-0.45,0.13,-0.26,-0.41,-0.29
1.401,0.31,-0.45,0.13,-0.24,-0.49,-0.26
1.404,0.31,-0.45,0.13,-0.21,-0.58,-0.21
1.406,0.31,-0.45,0.13,-0.2,-0.62,-0.19
1.408,0.31,-0.45,0.13,-0.18,-0.72,-0.14
1.424,0.31,-0.45,0.13,-0.16,-0.82,-0.1
1.425,0.31,-0.45,0.13,-0.17,-1.11,-0.03
1.425,0.31,-0.45,0.13,-0.17,-1.11,-0.03
1.425,0.31,-0.45,0.13,-0.17,-1.11,-0.03
1.426,0.31,-0.45,0.13,-0.18,-1.12,-0.02
1.426,0.31,-0.45,0.13,-0.18,-1.13,-0.01
1.426,0.31,-0.45,0.13,-0.18,-1.13,-0.01
1.426,0.31,-0.45,0.13,-0.19,-1.15,0.01
1.427,-0.88,-0.5,0.81,-0.19,-1.15,0.01
1.427,-1.06,-0.47,0.82,-0.19,-1.15,0.01
1.427,-1.17,-0.45,0.83,-0.19,-1.15,0.01
1.427,-1.17,-0.45,0.83,-0.2,-1.17,0.04
1.428,-1.17,-0.45,0.83,-0.2,-1.18,0.06
1.435,-1.17,-0.45,0.83,-0.19,-1.22,0.1
1.435,-1.17,-0.45,0.83,-0.16,-1.3,0.13
1.436,-1.71,-0.39,1.13,-0.16,-1.3,0.13
1.436,-1.71,-0.39,1.13,-0.14,-1.41,0.18
1.436,-1.71,-0.39,1.13,-0.12,-1.49,0.21
1.44,-1.71,-0.39,1.13,-0.08,-1.67,0.25
1.442,-1.71,-0.39,1.13,-0.06,-1.86,0.3
1.442,-1.71,-0.39,1.13,-0.05,-1.96,0.32
1.442,-1.73,0.81,3.31,-0.05,-1.96,0.32
1.443,-1.73,0.81,3.31,-0.03,-2.2,0.38
1.445,-1.73,0.81,3.31,-0.01,-2.51,0.44
1.447,-1.73,0.81,3.31,0.01,-2.86,0.52
1.465,-1.73,0.81,3.31,0.01,-3.05,0.57
1.466,-1.73,0.81,3.31,0.11,-4.88,1.14
1.466,-1.73,0.81,3.31,0.11,-4.88,1.14
1.466,-1.73,0.81,3.31,0.11,-4.88,1.14
1.466,-1.73,0.81,3.31,0.11,-4.88,1.14
1.467,-1.73,0.81,3.31,0.15,-5.08,1.22
1.467,-1.73,0.81,3.31,0.19,-5.24,1.33
1.467,-1.73,0.81,3.31,0.23,-5.37,1.45
1.468,0.67,4.35,6.28,0.23,-5.37,1.45
1.468,-0.09,4.36,6.4,0.23,-5.37,1.45
1.468,-0.55,4.37,6.5,0.23,-5.37,1.45
1.468,-0.55,4.37,6.5,0.26,-5.46,1.78
1.469,-0.55,4.37,6.5,0.26,-5.37,2.14
1.47,-0.55,4.37,6.5,0.29,-5.18,2.52
1.471,-2.29,3.81,-2.04,0.29,-5.18,2.52
1.471,-2.29,3.81,-2.04,0.31,-5.06,2.7
1.475,-2.29,3.81,-2.04,0.35,-4.76,3.04
1.476,-2.29,3.81,-2.04,0.41,-4.41,3.3
1.478,-2.29,3.81,-2.04,0.5,-4.09,3.46
1.481,-2.29,3.81,-2.04,0.55,-3.93,3.5
1.482,-0.89,2.87,-4.35,0.55,-3.93,3.5
1.482,-0.89,2.87,-4.35,0.65,-3.73,3.48
1.485,-0.89,2.87,-4.35,0.75,-3.66,3.3
1.486,-0.89,2.87,-4.35,0.79,-3.67,3.16
1.488,-0.89,2.87,-4.35,0.84,-3.72,2.84
1.503,-0.89,2.87,-4.35,0.86,-3.76,2.51
1.504,-0.89,2.87,-4.35,0.67,-3.33,1.87
1.504,-0.89,2.87,-4.35,0.64,-3.18,1.76
1.504,-0.89,2.87,-4.35,0.6,-2.99,1.62
1.504,-0.89,2.87,-4.35,0.6,-2.99,1.62
1.505,-0.89,2.87,-4.35,0.6,-2.99,1.62
1.505,-0.89,2.87,-4.35,0.58,-2.77,1.46
1.505,2.94,-3.12,-5.44,0.58,-2.77,1.46
1.505,2.6,-3.12,-5.32,0.58,-2.77,1.46
1.505,2.31,-3.11,-5.2,0.58,-2.77,1.46
1.506,2.31,-3.11,-5.2,0.54,-2.5,1.27
1.506,2.31,-3.11,-5.2,0.48,-1.86,0.85
1.507,2.31,-3.11,-5.2,0.43,-1.52,0.63
1.511,2.31,-3.11,-5.2,0.3,-0.86,0.22
1.511,2.31,-3.11,-5.2,0.13,-0.37,-0.12
1.512,4.23,-3.25,-6.17,0.13,-0.37,-0.12
1.519,4.23,-3.25,-6.17,-0.04,-0.11,-0.38
1.52,4.23,-3.25,-6.17,-0.12,-0.05,-0.5
1.52,4.23,-3.25,-6.17,-0.25,0,-0.7
1.521,4.23,-3.25,-6.17,-0.34,-0.06,-0.85
1.525,0.51,-2.25,-4.37,-0.34,-0.06,-0.85
1.525,0.51,-2.25,-4.37,-0.39,-0.11,-0.95
1.526,0.51,-2.25,-4.37,-0.42,-0.12,-1
1.527,0.51,-2.25,-4.37,-0.47,-0.02,-1.08
1.528,0.51,-2.25,-4.37,-0.53,0.17,-1.07
1.543,0.51,-2.25,-4.37,-0.57,0.27,-1.02
1.544,0.51,-2.25,-4.37,-0.97,0.03,-0.01
1.544,0.51,-2.25,-4.37,-0.97,0.03,-0.01
1.544,0.51,-2.25,-4.37,-0.97,0.03,-0.01
1.545,0.51,-2.25,-4.37,-0.97,0.03,-0.01
1.545,0.51,-2.25,-4.37,-0.61,0.72,0.09
1.545,0.51,-2.25,-4.37,-0.3,1.05,-0.13
1.545,2.32,0.84,22.23,-0.3,1.05,-0.13
1.545,2.34,0.93,22.23,-0.3,1.05,-0.13
1.545,2.34,0.93,22.23,-0.12,0.78,0.04
1.546,2.34,0.93,22.23,-0.18,0.28,0.18
1.55,2.34,0.93,22.23,-0.22,-0.15,0.43
1.551,2.34,0.93,22.23,0.03,-0.15,0.34
1.552,-6.13,2.86,6.89,0.03,-0.15,0.34
1.552,-6.13,2.86,6.89,0.02,-0.32,0.49
1.553,-6.13,2.86,6.89,0.05,-0.57,0.78
1.555,-6.13,2.86,6.89,0.13,-0.49,0.88
1.557,-6.13,2.86,6.89,0.11,-0.39,1.09
1.56,-6.13,2.86,6.89,0.19,-0.24,1.18
1.561,-7.56,2.38,3.52,0.19,-0.24,1.18
1.562,-7.56,2.38,3.52,0.2,0.22,1.32
1.565,-7.56,2.38,3.52,0.32,0.74,1.43
1.566,-7.56,2.38,3.52,0.38,1.29,1.49
1.568,-7.56,2.38,3.52,0.42,1.59,1.5
1.586,-7.56,2.38,3.52,0.49,2.14,1.48
1.586,-7.56,2.38,3.52,0.84,3.79,0.92
1.587,-7.56,2.38,3.52,0.84,3.79,0.92
1.587,-7.56,2.38,3.52,0.84,3.79,0.92
1.587,-7.56,2.38,3.52,0.91,3.95,0.8
1.587,-7.56,2.38,3.52,0.98,4.09,0.69
1.588,-7.56,2.38,3.52,0.98,4.09,0.69
1.588,-7.56,2.38,3.52,1.11,4.38,0.43
1.588,8.19,2.35,10.1,1.11,4.38,0.43
1.588,8.74,2.33,9.87,1.11,4.38,0.43
1.589,9.1,2.27,9.73,1.11,4.38,0.43
1.589,9.1,2.27,9.73,1.24,4.63,0.16
1.589,9.1,2.27,9.73,1.45,4.91,-0.13
1.59,9.1,2.27,9.73,1.48,4.96,-0.27
1.591,11.82,-0.45,11.61,1.48,4.96,-0.27
1.591,11.82,-0.45,11.61,1.59,5.02,-0.56
1.594,11.82,-0.45,11.61,1.79,5.09,-0.85
1.596,11.82,-0.45,11.61,1.93,5.12,-0.99
1.598,11.82,-0.45,11.61,2.24,5.15,-1.23
1.602,11.82,-0.45,11.61,2.59,5.18,-1.44
1.602,8.32,-0.67,15.8,2.59,5.18,-1.44
1.603,8.32,-0.67,15.8,2.95,5.18,-1.59
1.603,8.32,-0.67,15.8,3.09,5.17,-1.65
1.606,8.32,-0.67,15.8,3.39,5.13,-1.74
1.608,8.32,-0.67,15.8,3.61,5.07,-1.8
1.624,8.32,-0.67,15.8,3.83,4.95,-1.78
1.625,8.32,-0.67,15.8,4.32,4.06,-2.1
1.625,8.32,-0.67,15.8,4.34,3.95,-2.18
1.625,8.32,-0.67,15.8,4.36,3.87,-2.25
1.625,8.32,-0.67,15.8,4.36,3.87,-2.25
1.625,8.32,-0.67,15.8,4.36,3.87,-2.25
1.626,8.32,-0.67,15.8,4.36,3.87,-2.25
1.626,8.32,-0.67,15.8,4.42,3.83,-2.4
1.626,3.69,-1.12,7.48,4.42,3.83,-2.4
1.626,4.17,-1.53,7.39,4.42,3.83,-2.4
1.627,4.57,-1.98,7.35,4.42,3.83,-2.4
1.627,4.57,-1.98,7.35,4.45,3.84,-2.45
1.628,4.57,-1.98,7.35,4.5,3.88,-2.54
1.635,4.57,-1.98,7.35,4.52,3.94,-2.59
1.636,4.57,-1.98,7.35,4.54,4.03,-2.64
1.636,1.76,-2.75,4.92,4.54,4.03,-2.64
1.636,1.76,-2.75,4.92,4.55,4.09,-2.66
1.636,1.76,-2.75,4.92,4.55,4.2,-2.7
1.64,1.76,-2.75,4.92,4.56,4.32,-2.74
1.641,1.76,-2.75,4.92,4.56,4.41,-2.77
1.641,1.65,-4.82,3.52,4.56,4.41,-2.77
1.642,1.65,-4.82,3.52,4.57,4.57,-2.84
1.648,1.65,-4.82,3.52,4.57,4.75,-2.94
1.648,1.65,-4.82,3.52,4.56,4.95,-3.05
1.648,1.65,-4.82,3.52,4.56,5.06,-3.1
1.661,1.65,-4.82,3.52,4.55,5.27,-3.2
1.662,1.65,-4.82,3.52,4.54,5.97,-3.49
1.662,1.65,-4.82,3.52,4.54,5.97,-3.49
1.662,1.65,-4.82,3.52,4.54,5.97,-3.49
1.662,1.65,-4.82,3.52,4.54,5.97,-3.49
1.663,1.65,-4.82,3.52,4.54,6.05,-3.51
1.663,1.61,-4.7,0.79,4.54,6.05,-3.51
1.663,2.18,-5.15,0.86,4.54,6.05,-3.51
1.663,2.18,-5.15,0.86,4.54,6.13,-3.53
1.664,2.18,-5.15,0.86,4.53,6.28,-3.57
1.666,2.18,-5.15,0.86,4.52,6.42,-3.6
1.671,2.18,-5.15,0.86,4.5,6.54,-3.61
1.671,2.18,-5.15,0.86,4.48,6.59,-3.63
1.672,2.53,-4.1,-0.58,4.48,6.59,-3.63
1.672,2.53,-4.1,-0.58,4.46,6.69,-3.64
1.674,2.53,-4.1,-0.58,4.42,6.8,-3.66
1.676,2.53,-4.1,-0.58,4.38,6.89,-3.69
1.678,2.53,-4.1,-0.58,4.36,6.95,-3.7
1.681,2.53,-4.1,-0.58,4.32,7.07,-3.74
1.682,3.87,-3.28,-2.25,4.32,7.07,-3.74
1.682,3.87,-3.28,-2.25,4.29,7.16,-3.78
1.684,3.87,-3.28,-2.25,4.26,7.21,-3.81
1.688,3.87,-3.28,-2.25,4.21,7.26,-3.87
1.688,3.87,-3.28,-2.25,4.16,7.29,-3.93
1.702,3.87,-3.28,-2.25,4.09,7.34,-3.99
1.703,3.87,-3.28,-2.25,3.73,7.32,-4.15
1.703,3.87,-3.28,-2.25,3.73,7.32,-4.15
1.703,3.87,-3.28,-2.25,3.73,7.32,-4.15
1.703,3.87,-3.28,-2.25,3.73,7.32,-4.15
1.703,3.87,-3.28,-2.25,3.67,7.26,-4.16
1.704,3.87,-3.28,-2.25,3.6,7.19,-4.17
1.704,3.02,-1.87,-6.5,3.6,7.19,-4.17
1.704,3.81,-2.13,-6.17,3.6,7.19,-4.17
1.704,4.58,-2.3,-5.79,3.6,7.19,-4.17
1.704,4.58,-2.3,-5.79,3.47,7.04,-4.18
1.706,4.58,-2.3,-5.79,3.41,6.97,-4.19
1.707,4.58,-2.3,-5.79,3.29,6.83,-4.2
1.711,4.58,-2.3,-5.79,3.19,6.7,-4.2
1.715,5.32,-2.43,-5.35,3.19,6.7,-4.2
1.715,5.32,-2.43,-5.35,3.07,6.57,-4.19
1.716,5.32,-2.43,-5.35,3.01,6.51,-4.19
1.716,5.32,-2.43,-5.35,2.89,6.35,-4.18
1.722,5.32,-2.43,-5.35,2.78,6.19,-4.15
1.722,5.32,-2.43,-5.35,2.67,6.03,-4.1
1.722,5.32,-2.43,-5.35,2.61,5.94,-4.08
1.723,2.49,-1.36,-6.51,2.61,5.94,-4.08
1.723,2.49,-1.36,-6.51,2.48,5.75,-4.03
1.725,2.49,-1.36,-6.51,2.35,5.58,-3.96
1.727,2.49,-1.36,-6.51,2.29,5.49,-3.92
1.744,2.49,-1.36,-6.51,2.17,5.33,-3.85
1.744,2.49,-1.36,-6.51,1.72,4.54,-3.47
1.745,2.49,-1.36,-6.51,1.68,4.44,-3.42
1.745,2.49,-1.36,-6.51,1.63,4.34,-3.38
1.745,2.49,-1.36,-6.51,1.63,4.34,-3.38
1.745,2.49,-1.36,-6.51,1.63,4.34,-3.38
1.745,2.49,-1.36,-6.51,1.63,4.34,-3.38
1.745,-0.27,-1.35,-5.35,1.63,4.34,-3.38
1.746,0.23,-1.27,-4.94,1.63,4.34,-3.38
1.746,0.65,-1.15,-4.59,1.63,4.34,-3.38
1.746,0.65,-1.15,-4.59,1.59,4.24,-3.33
1.746,0.65,-1.15,-4.59,1.52,4.03,-3.24
1.751,0.65,-1.15,-4.59,1.45,3.8,-3.14
1.752,0.65,-1.15,-4.59,1.43,3.68,-3.09
1.752,0.65,-1.15,-4.59,1.38,3.42,-3
1.752,-0.02,-1.01,-3.58,1.38,3.42,-3
1.754,-0.02,-1.01,-3.58,1.35,3.14,-2.92
1.756,-0.02,-1.01,-3.58,1.32,2.85,-2.84
1.757,-0.02,-1.01,-3.58,1.31,2.7,-2.81
1.76,-0.02,-1.01,-3.58,1.28,2.41,-2.74
1.76,0.44,-0.17,-2.84,1.28,2.41,-2.74
1.761,0.44,-0.17,-2.84,1.26,2.11,-2.69
1.763,0.44,-0.17,-2.84,1.24,1.82,-2.64
1.766,0.44,-0.17,-2.84,1.22,1.68,-2.62
1.767,0.44,-0.17,-2.84,1.19,1.39,-2.59
1.782,0.44,-0.17,-2.84,1.15,1.11,-2.58
1.782,0.44,-0.17,-2.84,0.96,-0.02,-2.55
1.783,0.44,-0.17,-2.84,0.96,-0.02,-2.55
1.783,0.44,-0.17,-2.84,0.96,-0.02,-2.55
1.783,0.44,-0.17,-2.84,0.96,-0.02,-2.55
1.783,0.44,-0.17,-2.84,0.92,-0.18,-2.55
1.783,0.44,-0.17,-2.84,0.89,-0.32,-2.55
1.783,1.51,-1.87,-3.23,0.89,-0.32,-2.55
1.784,1.74,-1.61,-3.08,0.89,-0.32,-2.55
1.784,1.74,-1.61,-3.08,0.84,-0.61,-2.54
1.786,1.74,-1.61,-3.08,0.8,-0.91,-2.53
1.787,1.74,-1.61,-3.08,0.78,-1.06,-2.52
1.791,1.74,-1.61,-3.08,0.77,-1.39,-2.49
1.791,1.56,-1.92,-2.49,0.77,-1.39,-2.49
1.791,1.56,-1.92,-2.49,0.75,-1.72,-2.45
1.793,1.56,-1.92,-2.49,0.74,-1.9,-2.42
1.795,1.56,-1.92,-2.49,0.74,-2.27,-2.37
1.798,1.56,-1.92,-2.49,0.73,-2.65,-2.3
1.8,1.56,-1.92,-2.49,0.72,-3.04,-2.23
1.801,1.1,-1.36,-1.69,0.72,-3.04,-2.23
1.801,1.1,-1.36,-1.69,0.72,-3.24,-2.2
1.803,1.1,-1.36,-1.69,0.72,-3.63,-2.12
1.805,1.1,-1.36,-1.69,0.73,-4.05,-2.04
1.807,1.1,-1.36,-1.69,0.74,-4.49,-1.96
1.823,1.1,-1.36,-1.69,0.74,-4.71,-1.92
1.824,1.1,-1.36,-1.69,0.82,-6.8,-1.57
1.824,1.1,-1.36,-1.69,0.83,-7.04,-1.54
1.824,1.1,-1.36,-1.69,0.84,-7.27,-1.51
1.824,1.1,-1.36,-1.69,0.84,-7.27,-1.51
1.824,1.1,-1.36,-1.69,0.84,-7.27,-1.51
1.824,1.1,-1.36,-1.69,0.84,-7.27,-1.51
1.825,1.59,-1.47,-0.38,0.84,-7.27,-1.51
1.825,1.36,-1.37,-0.7,0.84,-7.27,-1.51
1.825,0.97,-1.31,-1.16,0.84,-7.27,-1.51
1.825,0.97,-1.31,-1.16,0.85,-7.51,-1.48
1.825,0.97,-1.31,-1.16,0.87,-7.97,-1.42
1.827,0.97,-1.31,-1.16,0.87,-8.33,-1.39
1.834,0.97,-1.31,-1.16,0.8,-8.54,-1.39
1.835,1.09,-1.63,-2.08,0.8,-8.54,-1.39
1.835,1.09,-1.63,-2.08,0.74,-8.58,-1.39
1.835,1.09,-1.63,-2.08,0.6,-8.59,-1.42
1.836,1.09,-1.63,-2.08,0.47,-8.54,-1.45
1.837,1.09,-1.63,-2.08,0.41,-8.49,-1.47
1.841,1.09,-1.63,-2.08,0.3,-8.36,-1.51
1.841,1.96,-1.59,-2.61,0.3,-8.36,-1.51
1.842,1.96,-1.59,-2.61,0.19,-8.19,-1.55
1.843,1.96,-1.59,-2.61,0.1,-7.96,-1.6
1.846,1.96,-1.59,-2.61,0.05,-7.82,-1.62
1.849,1.96,-1.59,-2.61,-0.03,-7.52,-1.67
1.863,1.96,-1.59,-2.61,-0.12,-7.18,-1.72
1.863,1.96,-1.59,-2.61,-0.33,-5.57,-1.92
1.864,1.96,-1.59,-2.61,-0.36,-5.35,-1.94
1.864,1.96,-1.59,-2.61,-0.38,-5.12,-1.97
1.864,1.96,-1.59,-2.61,-0.38,-5.12,-1.97
1.864,1.96,-1.59,-2.61,-0.38,-5.12,-1.97
1.864,1.96,-1.59,-2.61,-0.4,-4.9,-1.99
1.864,1.67,-1.08,-1.49,-0.4,-4.9,-1.99
1.865,0.7,-0.88,-2.1,-0.4,-4.9,-1.99
1.865,0.7,-0.88,-2.1,-0.42,-4.68,-2.01
1.866,0.7,-0.88,-2.1,-0.46,-4.24,-2.05
1.869,0.7,-0.88,-2.1,-0.48,-4.02,-2.07
1.871,0.7,-0.88,-2.1,-0.51,-3.59,-2.1
1.871,0.46,-0.14,-1.36,-0.51,-3.59,-2.1
1.872,0.46,-0.14,-1.36,-0.54,-3.2,-2.12
1.874,0.46,-0.14,-1.36,-0.56,-2.82,-2.15
1.875,0.46,-0.14,-1.36,-0.58,-2.64,-2.17
1.877,0.46,-0.14,-1.36,-0.59,-2.31,-2.19
1.88,0.46,-0.14,-1.36,-0.6,-2,-2.2
1.88,1.11,0.51,-0.99,-0.6,-2,-2.2
1.882,1.11,0.51,-0.99,-0.6,-1.85,-2.21
1.883,1.11,0.51,-0.99,-0.6,-1.57,-2.22
1.885,1.11,0.51,-0.99,-0.6,-1.31,-2.22
1.887,1.11,0.51,-0.99,-0.58,-1.05,-2.23
1.903,1.11,0.51,-0.99,-0.58,-0.94,-2.23
1.904,1.11,0.51,-0.99,-0.45,-0.09,-2.24
1.904,1.11,0.51,-0.99,-0.43,-0.02,-2.24
1.904,1.11,0.51,-0.99,-0.43,-0.02,-2.24
1.904,1.11,0.51,-0.99,-0.43,-0.02,-2.24
1.905,1.11,0.51,-0.99,-0.4,0.06,-2.24
1.905,1.11,0.51,-0.99,-0.37,0.12,-2.23
1.905,0.95,1.26,0.19,-0.37,0.12,-2.23
1.905,0.94,1.52,0.13,-0.37,0.12,-2.23
1.905,0.94,1.52,0.13,-0.3,0.22,-2.21
1.906,0.94,1.52,0.13,-0.27,0.26,-2.18
1.908,0.94,1.52,0.13,-0.2,0.32,-2.14
1.911,0.94,1.52,0.13,-0.12,0.36,-2.1
1.911,-0.29,0.81,0.8,-0.12,0.36,-2.1
1.911,-0.29,0.81,0.8,-0.07,0.37,-2.08
1.913,-0.29,0.81,0.8,0.02,0.36,-2.03
1.916,-0.29,0.81,0.8,0.11,0.34,-1.98
1.917,-0.29,0.81,0.8,0.21,0.29,-1.93
1.92,-0.29,0.81,0.8,0.26,0.27,-1.91
1.921,-1.05,0.84,1.57,0.26,0.27,-1.91
1.921,-1.05,0.84,1.57,0.35,0.19,-1.85
1.923,-1.05,0.84,1.57,0.44,0.09,-1.8
1.925,-1.05,0.84,1.57,0.48,0.03,-1.77
1.927,-1.05,0.84,1.57,0.57,-0.1,-1.72
1.943,-1.05,0.84,1.57,0.65,-0.25,-1.67
1.944,-1.05,0.84,1.57,0.94,-1.05,-1.47
1.944,-1.05,0.84,1.57,0.94,-1.05,-1.47
1.944,-1.05,0.84,1.57,0.94,-1.05,-1.47
1.945,-1.05,0.84,1.57,0.97,-1.15,-1.45
1.945,-1.05,0.84,1.57,1,-1.26,-1.43
1.945,-1.05,0.84,1.57,1,-1.26,-1.43
1.945,-1.93,-0.21,1.48,1,-1.26,-1.43
1.945,-1.99,-0.23,1.46,1,-1.26,-1.43
1.945,-2.07,-0.26,1.43,1,-1.26,-1.43
1.946,-2.07,-0.26,1.43,1.08,-1.48,-1.39
1.946,-2.07,-0.26,1.43,1.15,-1.71,-1.37
1.948,-2.07,-0.26,1.43,1.19,-1.82,-1.35
1.951,-2.07,-0.26,1.43,1.26,-2.04,-1.33
1.951,-1.98,-1.01,1.12,1.26,-2.04,-1.33
1.951,-1.98,-1.01,1.12,1.34,-2.27,-1.31
1.953,-1.98,-1.01,1.12,1.42,-2.5,-1.29
1.956,-1.98,-1.01,1.12,1.45,-2.62,-1.28
1.957,-1.98,-1.01,1.12,1.53,-2.87,-1.25
1.96,-1.98,-1.01,1.12,1.61,-3.13,-1.22
1.96,-2.4,-1.07,1.54,1.61,-3.13,-1.22
1.961,-2.4,-1.07,1.54,1.68,-3.39,-1.19
1.963,-2.4,-1.07,1.54,1.72,-3.51,-1.17
1.966,-2.4,-1.07,1.54,1.79,-3.7,-1.14
1.967,-2.4,-1.07,1.54,1.83,-3.78,-1.1
1.985,-2.4,-1.07,1.54,1.85,-3.78,-1.09
1.986,-2.4,-1.07,1.54,2.07,-3.75,-0.95
1.986,-2.4,-1.07,1.54,2.1,-3.74,-0.93
1.986,-2.4,-1.07,1.54,2.14,-3.72,-0.92
1.986,-2.4,-1.07,1.54,2.14,-3.72,-0.92
1.987,-2.4,-1.07,1.54,2.14,-3.72,-0.92
1.987,-2.4,-1.07,1.54,2.14,-3.72,-0.92
1.987,-2.4,-1.07,1.54,2.21,-3.59,-0.89
1.987,-2.12,0.55,4.06,2.21,-3.59,-0.89
1.987,-2.44,0.42,3.98,2.21,-3.59,-0.89
1.988,-2.77,0.26,3.91,2.21,-3.59,-0.89
1.988,-2.77,0.26,3.91,2.25,-3.49,-0.88
1.988,-2.77,0.26,3.91,2.32,-3.26,-0.86
1.991,-2.77,0.26,3.91,2.4,-2.99,-0.84
1.991,-2.25,0.3,4.17,2.4,-2.99,-0.84
1.991,-2.25,0.3,4.17,2.47,-2.7,-0.81
1.993,-2.25,0.3,4.17,2.52,-2.55,-0.8
1.995,-2.25,0.3,4.17,2.6,-2.25,-0.77
1.998,-2.25,0.3,4.17,2.69,-1.96,-0.74
2,-2.25,0.3,4.17,2.73,-1.81,-0.72
2.001,-1.84,-0.15,4.35,2.73,-1.81,-0.72
2.001,-1.84,-0.15,4.35,2.82,-1.52,-0.68
2.004,-1.84,-0.15,4.35,2.9,-1.23,-0.64
2.005,-1.84,-0.15,4.35,2.98,-0.95,-0.6
2.007,-1.84,-0.15,4.35,3.02,-0.82,-0.58
2.022,-1.84,-0.15,4.35,3.1,-0.54,-0.54
2.022,-1.84,-0.15,4.35,3.38,0.46,-0.37
2.022,-1.84,-0.15,4.35,3.38,0.46,-0.37
2.023,-1.84,-0.15,4.35,3.38,0.46,-0.37
2.023,-1.84,-0.15,4.35,3.38,0.46,-0.37
2.023,-1.84,-0.15,4.35,3.41,0.57,-0.35
2.023,-1.84,-0.15,4.35,3.44,0.66,-0.33
2.023,-1.42,-1.74,3.39,3.44,0.66,-0.33
2.024,-1.4,-2.31,3.57,3.44,0.66,-0.33
2.024,-1.4,-2.31,3.57,3.49,0.82,-0.29
2.025,-1.4,-2.31,3.57,3.53,0.93,-0.25
2.027,-1.4,-2.31,3.57,3.55,0.98,-0.22
2.035,-1.4,-2.31,3.57,3.55,0.96,-0.2
2.036,-1.02,-3.02,3.57,3.55,0.96,-0.2
2.036,-1.02,-3.02,3.57,3.53,0.84,-0.17
2.036,-1.02,-3.02,3.57,3.46,0.56,-0.14
2.036,-1.02,-3.02,3.57,3.33,0.36,-0.13
2.037,-1.02,-3.02,3.57,3.26,-0.13,-0.1
2.041,-1.02,-3.02,3.57,3.07,-0.69,-0.07
2.042,-1.02,-3.02,3.57,2.87,-1.26,-0.03
2.042,-1.12,-3.07,2.13,2.87,-1.26,-0.03
2.044,-1.12,-3.07,2.13,2.78,-1.52,0
2.046,-1.12,-3.07,2.13,2.61,-1.96,0.06
2.047,-1.12,-3.07,2.13,2.49,-2.26,0.14
2.064,-1.12,-3.07,2.13,2.42,-2.41,0.23
2.064,-1.12,-3.07,2.13,2.36,-2.09,0.56
2.065,-1.12,-3.07,2.13,2.36,-2.09,0.56
2.065,-1.12,-3.07,2.13,2.36,-2.09,0.56
2.065,-1.12,-3.07,2.13,2.37,-1.99,0.59
2.065,-1.12,-3.07,2.13,2.37,-1.89,0.62
2.065,-1.12,-3.07,2.13,2.37,-1.89,0.62
2.065,-2.69,-0.47,1.3,2.37,-1.89,0.62
2.066,-3.11,-0.9,1.4,2.37,-1.89,0.62
2.066,-3.11,-0.9,1.4,2.39,-1.68,0.67
2.066,-3.11,-0.9,1.4,2.39,-1.58,0.69
2.068,-3.11,-0.9,1.4,2.4,-1.38,0.74
2.07,-3.11,-0.9,1.4,2.41,-1.2,0.77
2.071,-2.37,-0.62,1.63,2.41,-1.2,0.77
2.072,-2.37,-0.62,1.63,2.42,-1.03,0.81
2.074,-2.37,-0.62,1.63,2.42,-0.96,0.82
2.076,-2.37,-0.62,1.63,2.41,-0.83,0.83
2.077,-2.37,-0.62,1.63,2.4,-0.72,0.84
2.082,-2.37,-0.62,1.63,2.39,-0.64,0.83
2.082,-1.44,-0.99,1.94,2.39,-0.64,0.83
2.082,-1.44,-0.99,1.94,2.39,-0.61,0.83
2.083,-1.44,-0.99,1.94,2.38,-0.56,0.82
2.086,-1.44,-0.99,1.94,2.38,-0.52,0.81
2.087,-1.44,-0.99,1.94,2.37,-0.51,0.8
2.103,-1.44,-0.99,1.94,2.38,-0.49,0.79
2.104,-1.44,-0.99,1.94,2.47,-0.5,0.76
2.104,-1.44,-0.99,1.94,2.48,-0.5,0.76
2.104,-1.44,-0.99,1.94,2.5,-0.5,0.76
2.104,-1.44,-0.99,1.94,2.5,-0.5,0.76
2.105,-1.44,-0.99,1.94,2.5,-0.5,0.76
2.105,-1.44,-0.99,1.94,2.5,-0.5,0.76
2.105,-1.23,-1.35,2.14,2.5,-0.5,0.76
2.105,-1.31,-1.56,2.25,2.5,-0.5,0.76
2.105,-1.39,-1.77,2.38,2.5,-0.5,0.76
2.106,-1.39,-1.77,2.38,2.51,-0.49,0.76
2.106,-1.39,-1.77,2.38,2.54,-0.49,0.76
2.108,-1.39,-1.77,2.38,2.56,-0.48,0.76
2.111,-1.39,-1.77,2.38,2.57,-0.47,0.76
2.112,-1.39,-1.77,2.38,2.59,-0.46,0.77
2.112,-1.59,-1.9,1.88,2.59,-0.46,0.77
2.113,-1.59,-1.9,1.88,2.62,-0.45,0.77
2.116,-1.59,-1.9,1.88,2.64,-0.44,0.79
2.117,-1.59,-1.9,1.88,2.65,-0.43,0.8
2.121,-1.59,-1.9,1.88,2.67,-0.43,0.81
2.121,-1.87,-1.94,1.47,2.67,-0.43,0.81
2.122,-1.87,-1.94,1.47,2.69,-0.41,0.83
2.123,-1.87,-1.94,1.47,2.71,-0.39,0.86
2.125,-1.87,-1.94,1.47,2.72,-0.38,0.87
2.127,-1.87,-1.94,1.47,2.73,-0.35,0.9
2.142,-1.87,-1.94,1.47,2.75,-0.32,0.92
2.143,-1.87,-1.94,1.47,2.8,-0.2,1.05
2.144,-1.87,-1.94,1.47,2.8,-0.2,1.05
2.144,-1.87,-1.94,1.47,2.8,-0.2,1.05
2.144,-1.87,-1.94,1.47,2.8,-0.2,1.05
2.144,-1.87,-1.94,1.47,2.8,-0.2,1.05
2.145,-2.13,-1.8,0.45,2.8,-0.2,1.05
2.145,-2.21,-2.02,0.61,2.8,-0.2,1.05
2.145,-2.21,-2.02,0.61,2.82,-0.17,1.08
2.146,-2.21,-2.02,0.61,2.84,-0.15,1.12
2.146,-2.21,-2.02,0.61,2.85,-0.14,1.15
2.147,-2.21,-2.02,0.61,2.85,-0.14,1.17
2.151,-2.21,-2.02,0.61,2.86,-0.13,1.2
2.152,-2.21,-2.02,0.61,2.88,-0.13,1.24
2.152,-2.29,-2.05,0.26,2.88,-0.13,1.24
2.154,-2.29,-2.05,0.26,2.88,-0.14,1.26
2.156,-2.29,-2.05,0.26,2.89,-0.16,1.29
2.158,-2.29,-2.05,0.26,2.9,-0.18,1.33
2.161,-2.29,-2.05,0.26,2.9,-0.2,1.36
2.161,-2.26,-2,0.02,2.9,-0.2,1.36
2.162,-2.26,-2,0.02,2.9,-0.21,1.37
2.163,-2.26,-2,0.02,2.9,-0.23,1.4
2.165,-2.26,-2,0.02,2.91,-0.26,1.41
2.167,-2.26,-2,0.02,2.9,-0.28,1.43
2.182,-2.26,-2,0.02,2.9,-0.29,1.43
2.183,-2.26,-2,0.02,2.85,-0.43,1.39
2.183,-2.26,-2,0.02,2.85,-0.43,1.39
2.186,-2.26,-2,0.02,2.85,-0.45,1.38
2.186,-2.26,-2,0.02,2.84,-0.47,1.36
2.186,-2.26,-2,0.02,2.84,-0.47,1.36
2.186,-2.26,-2,0.02,2.84,-0.47,1.36
2.187,-1.31,-1.67,-0.57,2.84,-0.47,1.36
2.187,-1.55,-2.07,-0.19,2.84,-0.47,1.36
2.187,-1.55,-2.07,-0.19,2.83,-0.48,1.34
2.187,-1.55,-2.07,-0.19,2.81,-0.52,1.3
2.188,-1.55,-2.07,-0.19,2.79,-0.55,1.26
2.19,-1.55,-2.07,-0.19,2.77,-0.58,1.22
2.191,-0.82,-2.31,-0.46,2.77,-0.58,1.22
2.192,-0.82,-2.31,-0.46,2.76,-0.58,1.2
2.193,-0.82,-2.31,-0.46,2.74,-0.59,1.15
2.195,-0.82,-2.31,-0.46,2.71,-0.6,1.11
2.198,-0.82,-2.31,-0.46,2.7,-0.59,1.09
2.2,-0.82,-2.31,-0.46,2.68,-0.57,1.06
2.201,-0.69,-2.46,-0.85,2.68,-0.57,1.06
2.202,-0.69,-2.46,-0.85,2.65,-0.54,1.02
2.204,-0.69,-2.46,-0.85,2.62,-0.51,1
2.206,-0.69,-2.46,-0.85,2.6,-0.49,0.99
2.208,-0.69,-2.46,-0.85,2.57,-0.43,0.96
2.223,-0.69,-2.46,-0.85,2.53,-0.38,0.94
2.223,-0.69,-2.46,-0.85,2.39,-0.09,0.9
2.223,-0.69,-2.46,-0.85,2.36,-0.05,0.91
2.223,-0.69,-2.46,-0.85,2.34,-0.01,0.91
2.224,-0.69,-2.46,-0.85,2.34,-0.01,0.91
2.224,-0.69,-2.46,-0.85,2.34,-0.01,0.91
2.224,-0.69,-2.46,-0.85,2.34,-0.01,0.91
2.224,-1.26,-1.79,-2.1,2.34,-0.01,0.91
2.224,-1.43,-2.08,-1.71,2.34,-0.01,0.91
2.225,-1.51,-2.21,-1.52,2.34,-0.01,0.91
2.225,-1.51,-2.21,-1.52,2.3,0.07,0.91
2.225,-1.51,-2.21,-1.52,2.25,0.15,0.9
2.227,-1.51,-2.21,-1.52,2.21,0.17,0.9
2.235,-1.51,-2.21,-1.52,2.16,0.23,0.89
2.235,-1.51,-2.21,-1.52,2.1,0.27,0.88
2.235,-1.25,-2.31,-2.13,2.1,0.27,0.88
2.236,-1.25,-2.31,-2.13,2.03,0.3,0.86
2.236,-1.25,-2.31,-2.13,2,0.31,0.85
2.238,-1.25,-2.31,-2.13,1.93,0.32,0.83
2.241,-1.25,-2.31,-2.13,1.86,0.33,0.81
2.242,-1.1,-2.15,-2.58,1.86,0.33,0.81
2.242,-1.1,-2.15,-2.58,1.81,0.33,0.8
2.244,-1.1,-2.15,-2.58,1.73,0.33,0.78
2.245,-1.1,-2.15,-2.58,1.64,0.33,0.76
2.247,-1.1,-2.15,-2.58,1.55,0.33,0.75
2.263,-1.1,-2.15,-2.58,1.51,0.34,0.74
2.264,-1.1,-2.15,-2.58,1.12,0.43,0.71
2.264,-1.1,-2.15,-2.58,1.12,0.43,0.71
2.264,-1.1,-2.15,-2.58,1.12,0.43,0.71
2.264,-1.1,-2.15,-2.58,1.08,0.45,0.71
2.264,-1.1,-2.15,-2.58,1.05,0.47,0.71
2.265,-1.1,-2.15,-2.58,1.05,0.47,0.71
2.265,-1.36,-1.55,-3.44,1.05,0.47,0.71
2.265,-1.44,-1.68,-3.22,1.05,0.47,0.71
2.265,-1.48,-1.73,-3.13,1.05,0.47,0.71
2.265,-1.48,-1.73,-3.13,1.01,0.48,0.71
2.266,-1.48,-1.73,-3.13,0.93,0.52,0.71
2.268,-1.48,-1.73,-3.13,0.86,0.55,0.72
2.271,-1.48,-1.73,-3.13,0.79,0.59,0.72
2.272,-1.48,-1.73,-3.13,0.75,0.6,0.73
2.272,-1.52,-1.74,-3.13,0.75,0.6,0.73
2.273,-1.52,-1.74,-3.13,0.68,0.63,0.74
2.275,-1.52,-1.74,-3.13,0.61,0.66,0.75
2.277,-1.52,-1.74,-3.13,0.55,0.68,0.75
2.28,-1.52,-1.74,-3.13,0.51,0.68,0.75
2.28,-1.38,-1.92,-2.83,0.51,0.68,0.75
2.282,-1.38,-1.92,-2.83,0.45,0.7,0.76
2.283,-1.38,-1.92,-2.83,0.38,0.7,0.76
2.285,-1.38,-1.92,-2.83,0.36,0.7,0.76
2.288,-1.38,-1.92,-2.83,0.3,0.7,0.76
2.302,-1.38,-1.92,-2.83,0.24,0.7,0.77
2.303,-1.38,-1.92,-2.83,0.07,0.66,0.8
2.303,-1.38,-1.92,-2.83,0.07,0.66,0.8
2.303,-1.38,-1.92,-2.83,0.07,0.66,0.8
2.303,-1.38,-1.92,-2.83,0.04,0.64,0.81
2.304,-1.38,-1.92,-2.83,0.01,0.63,0.82
2.304,-1.38,-1.92,-2.83,0.01,0.63,0.82
2.304,-1.63,-1.85,-2.08,0.01,0.63,0.82
2.304,-1.7,-1.86,-2.06,0.01,0.63,0.82
2.304,-1.74,-1.86,-2.06,0.01,0.63,0.82
2.305,-1.74,-1.86,-2.06,-0.05,0.6,0.84
2.305,-1.74,-1.86,-2.06,-0.12,0.57,0.86
2.307,-1.74,-1.86,-2.06,-0.16,0.55,0.87
2.31,-1.74,-1.86,-2.06,-0.24,0.53,0.9
2.311,-1.95,-2.08,-2.47,-0.24,0.53,0.9
2.311,-1.95,-2.08,-2.47,-0.33,0.5,0.93
2.313,-1.95,-2.08,-2.47,-0.42,0.48,0.96
2.315,-1.95,-2.08,-2.47,-0.47,0.47,0.97
2.317,-1.95,-2.08,-2.47,-0.58,0.44,1.01
2.321,-1.95,-2.08,-2.47,-0.69,0.43,1.04
2.321,-1.99,-3.24,-2.91,-0.69,0.43,1.04
2.321,-1.99,-3.24,-2.91,-0.75,0.42,1.06
2.324,-1.99,-3.24,-2.91,-0.74,0.4,1.05
2.325,-1.99,-3.24,-2.91,-0.61,0.35,0.99
2.327,-1.99,-3.24,-2.91,-0.54,0.34,0.95
2.344,-1.99,-3.24,-2.91,-0.53,0.35,0.94
2.344,-1.99,-3.24,-2.91,-0.67,0.44,1.09
2.345,-1.99,-3.24,-2.91,-0.68,0.45,1.08
2.345,-1.99,-3.24,-2.91,-0.68,0.46,1.08
2.348,-1.99,-3.24,-2.91,-0.68,0.46,1.08
2.348,-1.99,-3.24,-2.91,-0.68,0.46,1.08
2.348,-1.99,-3.24,-2.91,-0.68,0.46,1.08
2.348,-1.99,-3.24,-2.91,-0.67,0.48,1.06
2.349,-1.18,-1.25,-0.92,-0.67,0.48,1.06
2.349,-1.24,-1.22,-0.96,-0.67,0.48,1.06
2.349,-1.31,-1.18,-1.02,-0.67,0.48,1.06
2.349,-1.31,-1.18,-1.02,-0.65,0.49,1.06
2.349,-1.31,-1.18,-1.02,-0.63,0.52,1.05
2.353,-1.31,-1.18,-1.02,-0.61,0.55,1.06
2.354,-1.36,-0.33,-0.14,-0.61,0.55,1.06
2.354,-1.36,-0.33,-0.14,-0.6,0.57,1.06
2.354,-1.36,-0.33,-0.14,-0.57,0.63,1.07
2.356,-1.36,-0.33,-0.14,-0.55,0.68,1.07
2.358,-1.36,-0.33,-0.14,-0.52,0.73,1.07
2.361,-1.36,-0.33,-0.14,-0.51,0.76,1.06
2.361,-1.29,0.17,0.07,-0.51,0.76,1.06
2.361,-1.29,0.17,0.07,-0.48,0.81,1.05
2.363,-1.29,0.17,0.07,-0.45,0.85,1.04
2.365,-1.29,0.17,0.07,-0.43,0.89,1.03
2.367,-1.29,0.17,0.07,-0.41,0.91,1.02
2.382,-1.29,0.17,0.07,-0.39,0.95,1.01
2.383,-1.29,0.17,0.07,-0.33,1.04,0.95
2.383,-1.29,0.17,0.07,-0.33,1.04,0.95
2.383,-1.29,0.17,0.07,-0.33,1.04,0.95
2.384,-1.29,0.17,0.07,-0.33,1.04,0.95
2.384,-1.29,0.17,0.07,-0.32,1.04,0.94
2.384,-1.29,0.17,0.07,-0.32,1.05,0.94
2.384,-0.62,0.43,0.07,-0.32,1.05,0.94
2.384,-0.68,0.48,-0.01,-0.32,1.05,0.94
2.385,-0.68,0.48,-0.01,-0.31,1.03,0.92
2.385,-0.68,0.48,-0.01,-0.31,1.01,0.9
2.388,-0.68,0.48,-0.01,-0.31,0.97,0.87
2.392,-0.68,0.48,-0.01,-0.31,0.95,0.86
2.392,-0.68,0.48,-0.01,-0.31,0.9,0.82
2.392,-0.09,0.46,-0.32,-0.31,0.9,0.82
2.394,-0.09,0.46,-0.32,-0.31,0.84,0.79
2.396,-0.09,0.46,-0.32,-0.31,0.81,0.77
2.397,-0.09,0.46,-0.32,-0.32,0.74,0.73
2.4,-0.09,0.46,-0.32,-0.32,0.67,0.69
2.401,0.51,0.56,-0.53,-0.32,0.67,0.69
2.401,0.51,0.56,-0.53,-0.32,0.6,0.64
2.403,0.51,0.56,-0.53,-0.33,0.57,0.62
2.406,0.51,0.56,-0.53,-0.32,0.49,0.57
2.408,0.51,0.56,-0.53,-0.32,0.42,0.52
2.423,0.51,0.56,-0.53,-0.32,0.35,0.47
2.423,0.51,0.56,-0.53,-0.3,0.07,0.25
2.424,0.51,0.56,-0.53,-0.3,0.07,0.25
2.424,0.51,0.56,-0.53,-0.3,0.07,0.25
2.424,0.51,0.56,-0.53,-0.3,0.04,0.22
2.424,0.51,0.56,-0.53,-0.3,0,0.2
2.424,0.51,0.56,-0.53,-0.3,0,0.2
2.425,0.78,0.54,-0.26,-0.3,0,0.2
2.425,0.75,0.58,-0.31,-0.3,0,0.2
2.425,0.75,0.58,-0.31,-0.29,-0.06,0.15
2.425,0.75,0.58,-0.31,-0.29,-0.1,0.12
2.427,0.75,0.58,-0.31,-0.28,-0.16,0.08
2.431,0.75,0.58,-0.31,-0.27,-0.22,0.04
2.431,0.35,0.56,-0.06,-0.27,-0.22,0.04
2.438,0.35,0.56,-0.06,-0.26,-0.27,0
2.438,0.35,0.56,-0.06,-0.25,-0.29,-0.01
2.439,0.35,0.56,-0.06,-0.25,-0.34,-0.04
2.439,0.35,0.56,-0.06,-0.23,-0.37,-0.06
2.443,0.35,0.56,-0.06,-0.23,-0.39,-0.07
2.443,-0.42,0.42,0.24,-0.23,-0.39,-0.07
2.444,-0.42,0.42,0.24,-0.21,-0.42,-0.08
2.444,-0.42,0.42,0.24,-0.2,-0.44,-0.09
2.446,-0.42,0.42,0.24,-0.19,-0.46,-0.08
2.449,-0.42,0.42,0.24,-0.18,-0.46,-0.08
2.464,-0.42,0.42,0.24,-0.17,-0.47,-0.07
2.465,-0.42,0.42,0.24,-0.11,-0.46,0.04
2.465,-0.42,0.42,0.24,-0.11,-0.46,0.04
2.465,-0.42,0.42,0.24,-0.11,-0.46,0.05
2.466,-0.42,0.42,0.24,-0.11,-0.46,0.05
2.466,-0.42,0.42,0.24,-0.1,-0.45,0.07
2.466,-0.42,0.42,0.24,-0.1,-0.45,0.07
2.466,-0.42,0.42,0.24,-0.1,-0.45,0.09
2.467,-1.47,-0.06,0.9,-0.1,-0.45,0.09
2.467,-1.52,-0.05,0.89,-0.1,-0.45,0.09
2.467,-1.55,-0.04,0.89,-0.1,-0.45,0.09
2.467,-1.55,-0.04,0.89,-0.08,-0.43,0.13
2.468,-1.55,-0.04,0.89,-0.07,-0.41,0.16
2.473,-1.55,-0.04,0.89,-0.07,-0.4,0.18
2.474,-1.55,-0.04,0.89,-0.06,-0.37,0.22
2.474,-1.55,-0.18,1.08,-0.06,-0.37,0.22
2.474,-1.55,-0.18,1.08,-0.04,-0.34,0.26
2.476,-1.55,-0.18,1.08,-0.03,-0.3,0.29
2.478,-1.55,-0.18,1.08,-0.03,-0.28,0.31
2.481,-1.55,-0.18,1.08,-0.02,-0.24,0.34
2.481,-1.35,-0.27,1.14,-0.02,-0.24,0.34
2.487,-1.35,-0.27,1.14,-0.02,-0.2,0.38
2.488,-1.35,-0.27,1.14,-0.01,-0.17,0.39
2.489,-1.35,-0.27,1.14,0,-0.13,0.42
2.489,-1.35,-0.27,1.14,0,-0.08,0.45
2.507,-1.35,-0.27,1.14,0.01,-0.04,0.47
2.507,-1.35,-0.27,1.14,0.04,0.06,0.51
2.507,-1.35,-0.27,1.14,0.04,0.06,0.51
2.507,-1.35,-0.27,1.14,0.04,0.06,0.51
2.508,-1.35,-0.27,1.14,0.04,0.07,0.51
2.508,-1.35,-0.27,1.14,0.04,0.08,0.51
2.511,-1.35,-0.27,1.14,0.04,0.08,0.51
2.511,-1.35,-0.27,1.14,0.04,0.09,0.51
2.512,-1.35,-0.27,1.14,0.04,0.1,0.5
2.512,-0.49,-0.36,1.05,0.04,0.1,0.5
2.512,-0.54,-0.35,1.05,0.04,0.1,0.5
2.512,-0.57,-0.35,1.04,0.04,0.1,0.5
2.512,-0.57,-0.35,1.04,0.05,0.11,0.5
2.513,-0.57,-0.35,1.04,0.05,0.12,0.49
2.513,-0.57,-0.35,1.04,0.05,0.12,0.47
2.513,-0.27,-0.3,0.82,0.05,0.12,0.47
2.514,-0.27,-0.3,0.82,0.05,0.13,0.47
2.519,-0.27,-0.3,0.82,0.05,0.13,0.45
2.519,-0.27,-0.3,0.82,0.05,0.13,0.43
2.522,-0.27,-0.3,0.82,0.04,0.13,0.4
2.523,-0.17,-0.2,0.56,0.04,0.13,0.4
2.523,-0.17,-0.2,0.56,0.04,0.15,0.38
2.524,-0.17,-0.2,0.56,0.03,0.17,0.34
2.525,-0.17,-0.2,0.56,0.02,0.18,0.31
2.527,-0.17,-0.2,0.56,0.02,0.18,0.3
2.543,-0.17,-0.2,0.56,0.02,0.16,0.28
2.543,-0.17,-0.2,0.56,0.02,0.04,0.24
2.544,-0.17,-0.2,0.56,0.02,0.02,0.24
2.544,-0.17,-0.2,0.56,0.02,0.02,0.24
2.544,-0.17,-0.2,0.56,0.02,0.02,0.24
2.544,-0.17,-0.2,0.56,0.02,-0.01,0.24
2.544,-0.17,-0.2,0.56,0.02,-0.01,0.24
2.545,-0.64,0.3,0.68,0.02,-0.01,0.24
2.545,-0.66,0.31,0.67,0.02,-0.01,0.24
2.545,-0.66,0.31,0.67,0.01,-0.03,0.24
2.545,-0.66,0.31,0.67,0.01,-0.06,0.23
2.548,-0.66,0.31,0.67,0.01,-0.08,0.23
2.552,-0.66,0.31,0.67,0.01,-0.09,0.23
2.552,-0.66,0.31,0.67,0,-0.11,0.21
2.554,-0.6,0.3,0.69,0,-0.11,0.21
2.554,-0.6,0.3,0.69,0,-0.12,0.2
2.556,-0.6,0.3,0.69,0,-0.13,0.18
2.558,-0.6,0.3,0.69,0,-0.13,0.17
2.561,-0.6,0.3,0.69,0,-0.13,0.15
2.561,-0.51,0.1,0.93,0,-0.13,0.15
2.561,-0.51,0.1,0.93,0,-0.14,0.13
2.563,-0.51,0.1,0.93,0.01,-0.14,0.12
2.566,-0.51,0.1,0.93,0.02,-0.15,0.11
2.57,-0.51,0.1,0.93,0.03,-0.16,0.1
2.583,-0.51,0.1,0.93,0.05,-0.17,0.09
2.584,-0.51,0.1,0.93,0.12,-0.19,0.04
2.584,-0.51,0.1,0.93,0.14,-0.19,0.04
2.584,-0.51,0.1,0.93,0.14,-0.19,0.03
2.585,-0.51,0.1,0.93,0.14,-0.19,0.03
2.585,-0.51,0.1,0.93,0.14,-0.19,0.03
