time,ax,ay,az,wx,wy,wz
0.002,0.02,-0.03,0.17,-0.01,-0.03,0
0.002,0.02,-0.03,0.17,-0.01,-0.02,0
0.002,0.02,-0.03,0.17,-0.01,-0.02,0
0.002,0.02,-0.03,0.17,-0.01,-0.02,0
0.003,0.02,-0.03,0.17,-0.01,-0.01,0
0.003,0.02,-0.03,0.17,-0.01,-0.01,0
0.003,0.02,-0.03,0.17,-0.01,-0.01,0
0.003,0.03,-0.04,0.24,-0.01,-0.01,0
0.003,0.03,-0.04,0.24,-0.01,-0.01,0
0.003,0.03,-0.04,0.24,-0.01,-0.01,0
0.004,0.03,-0.04,0.24,0,-0.01,0
0.004,0.03,-0.04,0.24,0,0,0
0.006,0.03,-0.04,0.24,0,0,0
0.011,0.03,-0.04,0.24,0,0,0
0.011,0.02,-0.02,0.25,0,0,0
0.011,0.02,-0.02,0.25,0.01,0.01,0
0.012,0.02,-0.02,0.25,0.01,0.01,0
0.014,0.02,-0.02,0.25,0.01,0.01,0
0.016,0.02,-0.02,0.25,0.01,0.01,0
0.019,0.02,-0.02,0.25,0.01,0.01,0
0.019,0.02,0,0.24,0.01,0.01,0
0.02,0.02,0,0.24,0.01,0.02,0
0.022,0.02,0,0.24,0.01,0.02,0
0.025,0.02,0,0.24,0.01,0.02,0
0.026,0.02,0,0.24,0.01,0.02,0
0.042,0.02,0,0.24,0.01,0.02,0
0.043,0.02,0,0.24,0.01,0.01,0
0.043,0.02,0,0.24,0.01,0.01,0
0.043,0.02,0,0.24,0.01,0.01,0
0.043,0.02,0,0.24,0.01,0.01,0
0.043,0.02,0,0.24,0.01,0.01,0
0.044,0.02,0,0.24,0.01,0.01,0
0.044,0.02,0,0.24,0,0.01,0
0.044,0,0.02,0.19,0,0.01,0
0.044,0.01,0.02,0.18,0,0.01,0
0.044,0.01,0.02,0.18,0,0.01,0
0.046,0.01,0.02,0.18,0,0.01,0
0.051,0.01,0.02,0.18,0,0.01,0
0.051,0.01,0.02,0.18,0,0,0
0.051,0,0.03,0.19,0,0,0
0.052,0,0.03,0.19,0,0,0
0.054,0,0.03,0.19,0,0,0
0.056,0,0.03,0.19,0,-0.01,0
0.059,0,0.03,0.19,0,0,0
0.059,0.02,0,0.23,0,0,0
0.06,0.02,0,0.23,0,-0.01,0
0.063,0.02,0,0.23,-0.01,-0.01,0
0.064,0.02,0,0.23,0,-0.01,0
0.066,0.02,0,0.23,-0.01,-0.01,0
0.081,0.02,0,0.23,-0.01,-0.01,0
0.082,0.02,0,0.23,-0.01,-0.01,0
0.082,0.02,0,0.23,-0.01,-0.01,0
0.082,0.02,0,0.23,-0.01,-0.01,0
0.082,0.02,0,0.23,-0.01,-0.01,0
0.082,0.02,0,0.23,-0.01,-0.01,0
0.083,0.02,0,0.23,-0.01,-0.01,0
0.083,0.02,-0.02,0.19,-0.01,-0.01,0
0.083,0.02,-0.02,0.19,-0.01,-0.01,0
0.083,0.02,-0.02,0.19,-0.01,-0.01,0
0.084,0.02,-0.02,0.19,-0.01,-0.01,0
0.086,0.02,-0.02,0.19,0,-0.01,0
0.089,0.02,-0.02,0.19,0,-0.01,0
0.09,0,-0.03,0.21,0,-0.01,0
0.09,0,-0.03,0.21,0,-0.01,0
0.099,0,-0.03,0.21,0,0,0
0.099,0,-0.03,0.21,0,0,0
0.099,0,-0.03,0.21,0,0,0
0.099,0,-0.03,0.21,0,0,0
0.1,0.03,-0.04,0.22,0,0,0
0.1,0.03,-0.04,0.22,0,0,0
0.102,0.03,-0.04,0.22,0,0,0
0.104,0.03,-0.04,0.22,0,0,0
0.106,0.03,-0.04,0.22,0,0,0
0.123,0.03,-0.04,0.22,0,0.01,0
0.123,0.03,-0.04,0.22,0.01,0.01,0
0.123,0.03,-0.04,0.22,0.01,0.01,0
0.124,0.03,-0.04,0.22,0.01,0.01,0
0.124,0.03,-0.04,0.22,0.01,0.01,0
0.124,0.03,-0.04,0.22,0,0.01,0
0.124,0.03,-0.04,0.22,0,0.01,0
0.124,0.03,-0.04,0.22,0.01,0.01,0
0.125,-0.01,-0.01,0.22,0.01,0.01,0
0.125,-0.01,-0.01,0.22,0.01,0.01,0
0.125,-0.01,-0.01,0.22,0,0.01,0
0.127,-0.01,-0.01,0.22,0,0.01,0
0.129,-0.01,-0.01,0.22,0,0.01,0
0.129,0.01,0,0.23,0,0.01,0
0.13,0.01,0,0.23,0,0.01,0
0.132,0.01,0,0.23,0.01,0.01,0
0.134,0.01,0,0.23,0,0.01,0
0.136,0.01,0,0.23,0,0.01,0
0.139,0.01,0,0.23,0,0,0
0.139,0.01,0,0.23,0,0,0
0.14,0.01,0,0.23,0,0,0
0.142,0.01,0,0.23,0,0,0
0.144,0.01,0,0.23,0,0,0
0.146,0.01,0,0.23,0,0,0
0.161,0.01,0,0.23,0,0,0
0.162,0.01,0,0.23,0,0,0
0.162,0.01,0,0.23,0,0,0
0.162,0.01,0,0.23,0,0,0
0.162,0.01,0,0.23,0,0,0
0.162,0.01,0,0.23,0,0,0
0.163,0.01,0,0.23,0,0,0
0.163,0.03,0.01,0.19,0,0,0
0.163,0.03,0.01,0.19,0,0,0
0.163,0.03,0.01,0.19,0,0,0
0.163,0.03,0.01,0.19,0,-0.01,0
0.164,0.03,0.01,0.19,0,0,0
0.166,0.03,0.01,0.19,0,0,0
0.169,0.03,0.01,0.19,0,-0.01,0
0.17,0.03,-0.01,0.22,0,-0.01,0
0.17,0.03,-0.01,0.22,0,-0.01,0
0.172,0.03,-0.01,0.22,0,-0.01,0
0.182,0.03,-0.01,0.22,-0.01,-0.01,0
0.183,0.03,-0.01,0.22,0,0,0
0.183,0.03,-0.01,0.22,0,-0.01,0
0.183,0.02,-0.02,0.22,0,-0.01,0
0.184,0.02,-0.02,0.22,0,-0.01,0
0.184,0.02,-0.02,0.22,0,-0.01,0
0.184,0.02,-0.02,0.22,0,0,0
0.186,0.02,-0.02,0.22,0,0,0
0.202,0.02,-0.02,0.22,0,0,0
0.203,0.02,-0.02,0.22,0,0,0
0.203,0.02,-0.02,0.22,0,0,0
0.203,0.02,-0.02,0.22,0,0,0
0.203,0.02,-0.02,0.22,0,0,0
0.203,0.02,-0.02,0.22,0,0,0
0.203,0.02,-0.02,0.22,0,0,0
0.204,0.03,-0.02,0.22,0,0,0
0.204,0.03,-0.02,0.22,0,0,0
0.204,0.03,-0.02,0.22,0,0,0
0.204,0.03,-0.02,0.22,0,0.01,0
0.206,0.03,-0.02,0.22,0,0,0
0.209,0.03,-0.02,0.22,0,0,0
0.21,0.02,0,0.23,0,0,0
0.21,0.02,0,0.23,0,0,0
0.212,0.02,0,0.23,0,0,0
0.214,0.02,0,0.23,0,0,0
0.216,0.02,0,0.23,0,0.01,0
0.219,0.02,0,0.23,0,0.01,0
0.219,0,0,0.22,0,0.01,0
0.22,0,0,0.22,0,0.01,0
0.222,0,0,0.22,0,0.01,0
0.224,0,0,0.22,0,0.01,0
0.226,0,0,0.22,0,0.01,0
0.242,0,0,0.22,0,0.01,0
0.243,0,0,0.22,0,0,0
0.243,0,0,0.22,0,0,0
0.243,0,0,0.22,0,0,0
0.243,0,0,0.22,0,0,0
0.243,0,0,0.22,0,0,0
0.244,0,0,0.22,0,0,0
0.244,0.02,-0.02,0.2,0,0,0
0.244,0.02,-0.02,0.2,0,0,0
0.245,0.02,-0.02,0.2,0,0,0
0.246,0.02,-0.02,0.2,0,0,0
0.246,0.02,-0.02,0.2,0,0,0
0.249,0.02,-0.02,0.2,0,0,0
0.249,-0.01,-0.01,0.21,0,0,0
0.253,-0.01,-0.01,0.21,0,0,0
0.254,-0.01,-0.01,0.21,0,0,0
0.254,-0.01,-0.01,0.21,0,0,0
0.256,-0.01,-0.01,0.21,0,0,0
0.259,-0.01,-0.01,0.21,0,0,0
0.259,0,-0.02,0.19,0,0,0
0.26,0,-0.02,0.19,0,0,0
0.263,0,-0.02,0.19,0,-0.01,0
0.264,0,-0.02,0.19,0,-0.01,0
0.267,0,-0.02,0.19,0,-0.01,0
0.283,0,-0.02,0.19,-0.01,-0.01,0
0.283,0,-0.02,0.19,0,-0.01,0
0.283,0,-0.02,0.19,-0.01,0,0
0.284,0,-0.02,0.19,0,-0.01,0
0.284,0,-0.02,0.19,0,-0.01,0
0.284,0,-0.02,0.19,0,-0.01,0
0.284,0,-0.02,0.19,0,-0.01,0
0.284,0.03,-0.03,0.22,0,-0.01,0
0.284,0.03,-0.03,0.22,0,-0.01,0
0.285,0.03,-0.03,0.22,0,0,0
0.285,0.03,-0.03,0.22,0,0,0
0.286,0.03,-0.03,0.22,0,0,0
0.289,0.03,-0.03,0.22,0,0,0
0.29,0.02,-0.02,0.23,0,0,0
0.29,0.02,-0.02,0.23,0,0,0
0.292,0.02,-0.02,0.23,0,0,0
0.297,0.02,-0.02,0.23,0,0,0
0.298,0.02,-0.02,0.23,0,0,0
0.3,0.02,-0.02,0.23,0,0,0
0.3,0.02,-0.01,0.23,0,0,0
0.301,0.02,-0.01,0.23,0,0,0
0.302,0.02,-0.01,0.23,0,0,0
0.304,0.02,-0.01,0.23,0,0,0
0.306,0.02,-0.01,0.23,0,0,0
0.321,0.02,-0.01,0.23,0,0,0
0.322,0.02,-0.01,0.23,0,0.01,0
0.322,0.02,-0.01,0.23,0,0.01,0
0.325,0.02,-0.01,0.23,0,0.01,0
0.325,0.02,-0.01,0.23,0,0.01,0
0.325,0.02,-0.01,0.23,0,0.01,0
0.325,0.02,-0.01,0.23,0,0.01,0
0.325,0.02,-0.01,0.21,0,0.01,0
0.326,0.02,-0.01,0.21,0,0.01,0
0.326,0.02,-0.01,0.21,0,0.01,0
0.326,0.02,-0.01,0.21,0,0.01,0
0.327,0.02,-0.01,0.21,0,0.01,0
0.33,0.02,-0.01,0.21,0,0,0
0.33,0.01,0,0.24,0,0,0
0.33,0.01,0,0.24,0,0.01,0
0.332,0.01,0,0.24,0,0,0
0.334,0.01,0,0.24,0,0,0
0.336,0.01,0,0.24,0,0,0
0.339,0.01,0,0.24,0,0,0
0.339,0.01,0,0.22,0,0,0
0.34,0.01,0,0.22,0,0,0
0.343,0.01,0,0.22,0,0,0
0.344,0.01,0,0.22,0,0,0
0.346,0.01,0,0.22,0,0,0
0.361,0.01,0,0.22,0,0,0
0.361,0.01,0,0.22,0,-0.01,0
0.362,0.01,0,0.22,0,-0.01,0
0.362,0.01,0,0.22,0,-0.01,0
0.362,0.01,0,0.22,0,-0.01,0
0.362,0.01,0,0.22,0,0,0
0.362,0.01,0,0.22,0,0,0
0.363,-0.01,-0.02,0.22,0,0,0
0.363,-0.02,-0.02,0.22,0,0,0
0.363,-0.02,-0.02,0.22,0,0,0
0.364,-0.02,-0.02,0.22,0,-0.01,0
0.366,-0.02,-0.02,0.22,0,0,0
0.369,-0.02,-0.02,0.22,0,0,0
0.369,0.01,-0.04,0.22,0,0,0
0.37,0.01,-0.04,0.22,0,-0.01,0
0.372,0.01,-0.04,0.22,0,-0.01,0
0.374,0.01,-0.04,0.22,0,0,0
0.382,0.01,-0.04,0.22,0,0,0
0.383,0.01,-0.04,0.22,0,-0.01,0
0.383,0.01,-0.01,0.21,0,-0.01,0
0.383,0.01,-0.01,0.21,0,-0.01,0
0.384,0.01,-0.01,0.21,0,-0.01,0
0.384,0.01,-0.01,0.21,0,0,0
0.386,0.01,-0.01,0.21,0,0,0
0.402,0.01,-0.01,0.21,0,0,0
0.403,0.01,-0.01,0.21,0,0,0
0.403,0.01,-0.01,0.21,0,0,0
0.403,0.01,-0.01,0.21,0,0,0
0.404,0.01,-0.01,0.21,0,0,0
0.404,0.01,-0.01,0.21,0,0,0
0.404,0.01,-0.01,0.21,0,0,0
0.404,0.04,-0.01,0.24,0,0,0
0.404,0.04,-0.01,0.24,0,0,0
0.405,0.04,-0.01,0.24,0,0,0
0.405,0.04,-0.01,0.24,0,0,0
0.406,0.04,-0.01,0.24,0,0,0
0.412,0.04,-0.01,0.24,0.01,0.01,0
0.412,0.02,0.01,0.2,0.01,0.01,0
0.413,0.02,0.01,0.2,0,0.01,0
0.413,0.02,0.01,0.2,0.01,0.01,0
0.414,0.02,0.01,0.2,0,0.01,0
0.416,0.02,0.01,0.2,0,0,0
0.419,0.02,0.01,0.2,0,0.01,0
0.419,-0.01,0.01,0.2,0,0.01,0
0.42,-0.01,0.01,0.2,0,0.01,0
0.422,-0.01,0.01,0.2,0,0,0
0.424,-0.01,0.01,0.2,0,0.01,0
0.426,-0.01,0.01,0.2,0,0,0
0.442,-0.01,0.01,0.2,0,0,0
0.443,-0.01,0.01,0.2,0,0,0
0.443,-0.01,0.01,0.2,0,0,0
0.443,-0.01,0.01,0.2,0,0,0
0.443,-0.01,0.01,0.2,0,0,0
0.444,-0.01,0.01,0.2,0,0,0
0.444,-0.01,0.01,0.2,0,0,0
0.444,-0.01,-0.03,0.21,0,0,0
0.444,-0.01,-0.03,0.21,0,0,0
0.444,-0.01,-0.03,0.21,0,0,0
0.445,-0.01,-0.03,0.21,0,0,0
0.446,-0.01,-0.03,0.21,0,0,0
0.45,-0.01,-0.03,0.21,0,0,0
0.45,0,-0.03,0.2,0,0,0
0.451,0,-0.03,0.2,0,0,0
0.452,0,-0.03,0.2,0,0,0
0.454,0,-0.03,0.2,0,0,0
0.456,0,-0.03,0.2,0,0,0
0.459,0,-0.03,0.2,0,0,0
0.459,-0.02,-0.02,0.21,0,0,0
0.46,-0.02,-0.02,0.21,0,-0.01,0
0.462,-0.02,-0.02,0.21,0,0,0
0.464,-0.02,-0.02,0.21,0,-0.01,0
0.466,-0.02,-0.02,0.21,0,0,0
0.482,-0.02,-0.02,0.21,0,0,0
0.483,-0.02,-0.02,0.21,0,0,0
0.483,-0.02,-0.02,0.21,0,0,0
0.484,-0.02,-0.02,0.21,0,0,0
0.484,-0.02,-0.02,0.21,0,0,0
0.484,-0.02,-0.02,0.21,0,0,0
0.484,-0.02,-0.02,0.21,0,0,0
0.487,-0.02,-0.02,0.21,0,0,0
0.487,0,-0.01,0.23,0,0,0
0.488,0,-0.01,0.23,0,0,0
0.488,0,-0.01,0.23,0,0,0
0.488,0,-0.01,0.23,0,0,0
0.488,0,-0.01,0.23,0,0,0
0.489,0,-0.01,0.23,0,0,0
0.489,0.03,-0.01,0.23,0,0,0
0.49,0.03,-0.01,0.23,0,0,0
0.492,0.03,-0.01,0.23,0,0,0
0.496,0.03,-0.01,0.23,0,0,0
0.496,0.03,-0.01,0.23,0,0,0
0.499,0.03,-0.01,0.23,0,0,0
0.499,0.05,0,0.22,0,0,0
0.499,0.05,0,0.22,0,0,0
0.502,0.05,0,0.22,0,0,0
0.504,0.05,0,0.22,0,0,0
0.506,0.05,0,0.22,0.01,0,0
0.522,0.05,0,0.22,0,0.01,0
0.522,0.05,0,0.22,0,0.01,0
0.522,0.05,0,0.22,0,0.01,0
0.523,0.05,0,0.22,0.01,0.01,0
0.523,0.05,0,0.22,0,0.01,0
0.523,0.05,0,0.22,0,0.01,0
0.523,0.05,0,0.22,0,0.01,0
0.523,0.05,0,0.22,0,0.01,0
0.524,0.02,0.01,0.24,0,0.01,0
0.524,0.02,0.01,0.24,0,0.01,0
0.524,0.02,0.01,0.24,0,0.01,0
0.526,0.02,0.01,0.24,0,0,0
0.53,0.02,0.01,0.24,0,0.01,0
0.53,0.02,0.01,0.24,0,0.01,0
0.53,0,-0.01,0.22,0,0.01,0
0.532,0,-0.01,0.22,0,0.01,0
0.534,0,-0.01,0.22,0,0,0
0.536,0,-0.01,0.22,0,0,0
0.539,0,-0.01,0.22,0,0,0
0.539,-0.01,-0.01,0.19,0,0,0
0.54,-0.01,-0.01,0.19,0,0,0
0.542,-0.01,-0.01,0.19,0,0,0
0.544,-0.01,-0.01,0.19,0,0,0
0.546,-0.01,-0.01,0.19,0,0,0
0.56,-0.01,-0.01,0.19,0,0,0
0.561,-0.01,-0.01,0.19,0,0,0
0.561,-0.01,-0.01,0.19,0,0,0
0.561,-0.01,-0.01,0.19,0,0,0
0.562,-0.01,-0.01,0.19,0,0,0
0.562,-0.01,-0.01,0.19,0,0,0
0.562,-0.01,-0.01,0.19,0,-0.01,0
0.562,0,-0.02,0.21,0,-0.01,0
0.562,0,-0.02,0.21,0,-0.01,0
0.563,0,-0.02,0.21,0,0,0
0.564,0,-0.02,0.21,0,0,0
0.566,0,-0.02,0.21,0,0,0
0.569,0,-0.02,0.21,0,0,0
0.57,0.01,-0.02,0.22,0,0,0
0.57,0.01,-0.02,0.22,0,0,0
0.572,0.01,-0.02,0.22,0,0,0
0.574,0.01,-0.02,0.22,0,-0.01,0
0.58,0.01,-0.02,0.22,0,0,0
0.581,0.01,-0.02,0.22,0,0,0
0.581,0.02,0,0.21,0,0,0
0.581,0.02,0,0.21,0,0,0
0.587,0.02,0,0.21,0,0,0
0.588,0.02,0,0.21,0,0,0
0.588,0.02,0,0.21,0,0,0
0.601,0.02,0,0.21,0,-0.01,0
0.602,0.02,0,0.21,0,0,0
0.602,0.02,0,0.21,0,0,0
0.602,0.02,0,0.21,0,0,0
0.602,0.02,0,0.21,0,0,0
0.603,0.02,0,0.21,0,0,0
0.603,0.02,0,0.21,0,0,0
0.603,0.03,0.04,0.21,0,0,0
0.603,0.03,0.04,0.21,0,0,0
0.603,0.03,0.04,0.21,0,0,0
0.603,0.03,0.04,0.21,0,0,0
0.604,0.03,0.04,0.21,0,0,0
0.606,0.03,0.04,0.21,0,0,0
0.609,0.03,0.04,0.21,0,0.01,0
0.61,0.07,0.01,0.13,0,0.01,0
0.61,0.07,0.01,0.13,0,0,0
0.612,0.07,0.01,0.13,0,0,0
0.614,0.07,0.01,0.13,0,0,0
0.616,0.07,0.01,0.13,0,0,0
0.619,0.07,0.01,0.13,0,0,0
0.619,0.06,-0.01,-0.03,0,0,0
0.62,0.06,-0.01,-0.03,0,0,0
0.622,0.06,-0.01,-0.03,0,0.01,0
0.624,0.06,-0.01,-0.03,0,0.01,0
0.626,0.06,-0.01,-0.03,0.01,0,0
0.643,0.06,-0.01,-0.03,0,0,0
0.643,0.06,-0.01,-0.03,0,0,0
0.644,0.06,-0.01,-0.03,0,0,0
0.644,0.06,-0.01,-0.03,0,0,0
0.644,0.06,-0.01,-0.03,0,0,0
0.644,0.06,-0.01,-0.03,0,0,0
0.644,0.06,-0.01,-0.03,0,0,0
0.645,0.06,-0.01,-0.03,0,0,0
0.645,0.03,-0.03,0.31,0,0,0
0.648,0.03,-0.03,0.31,0,0,0
0.648,0.03,-0.03,0.31,0,0,0
0.648,0.03,-0.03,0.31,0,0,0
0.649,0.03,-0.03,0.31,0,0,0
0.651,0.03,-0.03,0.31,0,0,0
0.651,0.03,-0.03,0.31,0,0,0
0.651,-0.02,-0.02,0.43,0,0,0
0.652,-0.02,-0.02,0.43,0,-0.01,0
0.654,-0.02,-0.02,0.43,0,0,0
0.656,-0.02,-0.02,0.43,0,0,0
0.661,-0.02,-0.02,0.43,0,0,0
0.661,-0.02,-0.02,0.43,0,0,0
0.661,0.03,0.01,0.17,0,0,0
0.663,0.03,0.01,0.17,0,0,0
0.664,0.03,0.01,0.17,0,-0.01,0
0.666,0.03,0.01,0.17,0,0,0
0.682,0.03,0.01,0.17,0,0,0
0.683,0.03,0.01,0.17,0,0,0
0.683,0.03,0.01,0.17,0,0,0
0.683,0.03,0.01,0.17,0,0,0
0.683,0.03,0.01,0.17,0,0,0
0.683,0.03,0.01,0.17,0,0,0
0.683,0.03,0.01,0.17,0,0,0
0.684,0.03,-0.01,0.15,0,0,0
0.684,0.03,-0.01,0.15,0,0,0
0.684,0.03,-0.01,0.15,0,0,0
0.685,0.03,-0.01,0.15,0,0,0
0.687,0.03,-0.01,0.15,0,0,0
0.69,0.03,-0.01,0.15,0,0,0
0.69,0.03,-0.01,0.15,0,0,0
0.691,0.04,-0.01,0.22,0,0,0
0.692,0.04,-0.01,0.22,0,0,0
0.694,0.04,-0.01,0.22,0,0,0
0.698,0.04,-0.01,0.22,0,0,0
0.7,0.04,-0.01,0.22,0,0,0
0.7,0.02,-0.02,0.2,0,0,0
0.7,0.02,-0.02,0.2,0,0,0
0.703,0.02,-0.02,0.2,0,0,0
0.705,0.02,-0.02,0.2,0,0,0
0.706,0.02,-0.02,0.2,0,0,0
0.722,0.02,-0.02,0.2,0,0,0
0.722,0.02,-0.02,0.2,0,0,0
0.723,0.02,-0.02,0.2,0,0,0
0.723,0.02,-0.02,0.2,0,0,0
0.723,0.02,-0.02,0.2,0,0,0
0.723,0.02,-0.02,0.2,0,0,0
0.723,0.02,-0.02,0.2,0,0,0
0.724,0.02,-0.01,0.19,0,0,0
0.724,0.02,-0.01,0.19,0,0,0
0.724,0.02,-0.01,0.19,0,0,0
0.725,0.02,-0.01,0.19,0,0,0
0.726,0.02,-0.01,0.19,0,0,0
0.731,0.02,-0.01,0.19,0,0,0
0.731,0.02,-0.01,0.19,0,0,0
0.731,0.01,-0.02,0.22,0,0,0
0.732,0.01,-0.02,0.22,0,0,0
0.734,0.01,-0.02,0.22,0,0,0
0.736,0.01,-0.02,0.22,0,0,0
0.739,0.01,-0.02,0.22,0,0,0
0.739,0.01,-0.02,0.23,0,0,0
0.74,0.01,-0.02,0.23,0,0,0
0.743,0.01,-0.02,0.23,0,0,0
0.745,0.01,-0.02,0.23,0,0,0
0.746,0.01,-0.02,0.23,0,0,0
0.762,0.01,-0.02,0.23,0,0,0
0.762,0.01,-0.02,0.23,0,0,0
0.763,0.01,-0.02,0.23,0,0,0
0.763,0.01,-0.02,0.23,0,0,0
0.763,0.01,-0.02,0.23,0,0,0
0.764,0.01,-0.02,0.23,0,0,0
0.764,0.01,-0.02,0.23,0,0,0
0.764,0.02,0.01,0.25,0,0,0
0.764,0.02,0.01,0.25,0,0,0
0.765,0.02,0.01,0.25,0,0,0
0.765,0.02,0.01,0.25,0,0,0
0.767,0.02,0.01,0.25,0,0,0
0.769,0.02,0.01,0.25,0,0,0
0.77,0.01,0,0.22,0,0,0
0.77,0.01,0,0.22,0,0,0
0.773,0.01,0,0.22,0,0,0
0.775,0.01,0,0.22,0,0,0
0.78,0.01,0,0.22,0,0,0
0.781,0.01,0,0.22,0,0,0
0.781,0,0,0.18,0,0,0
0.781,0,0,0.18,0,0,0
0.787,0,0,0.18,0,0,0
0.787,0,0,0.18,0,0,0
0.788,0,0,0.18,0,0,0
0.802,0,0,0.18,0,0,0
0.803,0,0,0.18,0,0,0
0.803,0,0,0.18,0,0,0
0.803,0,0,0.18,0,0,0
0.803,0,0,0.18,0,0,0
0.804,0,0,0.18,0,0,0
0.804,0,0,0.18,0,0,0
0.804,0.02,-0.04,0.18,0,0,0
0.805,0.02,-0.04,0.18,0,0,0
0.805,0.02,-0.04,0.18,0,0,0
0.805,0.02,-0.04,0.18,0,0,0
0.806,0.02,-0.04,0.18,0,0,0
0.811,0.02,-0.04,0.18,0,0,0
0.811,0.02,-0.04,0.18,0,0,0
0.811,0.03,-0.01,0.19,0,0,0
0.812,0.03,-0.01,0.19,0,0,0
0.814,0.03,-0.01,0.19,0,0,0
0.817,0.03,-0.01,0.19,0,0,0
0.82,0.03,-0.01,0.19,0,0,0
0.82,0.03,-0.01,0.19,0,0,0
0.82,-0.02,-0.01,0.22,0,0,0
0.822,-0.02,-0.01,0.22,0,0,0
0.824,-0.02,-0.01,0.22,0,0,0
0.83,-0.02,-0.01,0.22,0,0,0
0.844,-0.02,-0.01,0.22,0,0,0
0.845,-0.02,-0.01,0.22,0,0,0
0.845,-0.02,-0.01,0.22,0,0,0
0.846,-0.02,-0.01,0.22,0,0,0
0.846,-0.02,-0.01,0.22,0,0,0
0.846,-0.02,-0.01,0.22,0,0,0
0.846,-0.02,-0.01,0.22,0,0,0
0.847,-0.02,-0.01,0.22,0,0,0
0.847,0.01,0,0.22,0,0,0
0.847,0.01,0,0.22,0,0,0
0.847,0.01,0,0.22,0,0,0
0.847,0.01,0,0.22,0,0,0
0.849,0.01,0,0.22,0,0,0
0.849,0.01,0,0.22,0,0,0
0.849,0,0,0.22,0,0,0
0.85,0,0,0.22,0,0,0
0.852,0,0,0.22,0,0,0
0.854,0,0,0.22,0,0,0
0.856,0,0,0.22,0,0,0
0.86,0,0,0.22,0,0,0
0.861,0,0,0.22,0,0,0
0.861,0.02,0,0.23,0,0,0
0.863,0.02,0,0.23,0,0,0
0.864,0.02,0,0.23,0,0,0
0.866,0.02,0,0.23,0,0,0
0.882,0.02,0,0.23,0,0,0
0.883,0.02,0,0.23,0,0,0
0.883,0.02,0,0.23,0,0,0
0.883,0.02,0,0.23,0,0,0
0.883,0.02,0,0.23,0,0,0
0.884,0.02,0,0.23,0,0,0
0.884,0.02,0,0.23,0,0,0
0.884,0.02,0,0.23,0,0,0
0.884,-0.01,-0.01,0.21,0,0,0
0.885,-0.01,-0.01,0.21,0,0,0
0.885,-0.01,-0.01,0.21,0,0,0
0.887,-0.01,-0.01,0.21,0,0,0
0.89,-0.01,-0.01,0.21,0,0,0
0.89,0.01,-0.01,0.21,0,0,0
0.89,0.01,-0.01,0.21,0,0,0
0.892,0.01,-0.01,0.21,0,0,0
0.899,0.01,-0.01,0.21,0,0,0
0.9,0.01,-0.01,0.21,0,0,0
0.9,0.01,-0.01,0.21,0,0,0
0.901,0,0.01,0.19,0,0,0
0.901,0,0.01,0.19,-0.01,0,0
0.902,0,0.01,0.19,0,0,0
0.905,0,0.01,0.19,0,0,0
0.906,0,0.01,0.19,0,-0.01,0
0.918,0,0.01,0.19,0,0,0
0.919,0,0.01,0.19,0,0,0
0.919,0,0.01,0.19,0,0,0
0.92,0,0.01,0.19,0,0,0
0.92,0,0.01,0.19,0,0,0
0.92,0.01,0.01,0.21,0,0,0
0.921,0.01,0.01,0.21,0,0,0
0.921,0.01,0.01,0.21,0,0,0
0.922,0.01,0.01,0.21,0,0,0
0.922,0.01,0.01,0.21,0,0,0
0.924,0.01,0.01,0.21,0,0,0
0.931,0.01,0.01,0.21,0,0,0
0.932,0.01,0.01,0.21,0,0,0
0.932,0.01,0.01,0.21,0,0,0
0.932,0.01,0.01,0.21,0,0,0
0.932,0.01,-0.03,0.22,0,0,0
0.934,0.01,-0.03,0.22,0,0,0
0.936,0.01,-0.03,0.22,0,0,0
0.94,0.01,-0.03,0.22,0,0,0
0.941,0.01,-0.03,0.2,0,0,0
0.941,0.01,-0.03,0.2,0,0,0
0.941,0.01,-0.03,0.2,0,0,0
0.945,0.01,-0.03,0.2,0,0,0
0.946,0.01,-0.03,0.2,0,0,0
0.961,0.01,-0.03,0.2,0,0,0
0.962,0.01,-0.03,0.2,0,0,0
0.962,0.01,-0.03,0.2,0,0,0
0.962,0.01,-0.03,0.2,0,0,0
0.962,0.01,-0.03,0.2,0,0,0
0.962,0.01,-0.03,0.2,0,0,0
0.963,0.01,-0.03,0.2,0,0,0
0.963,0.01,-0.03,0.2,0,0,0
0.964,0.02,0,0.2,0,0,0
0.964,0.02,0,0.2,0,0,0
0.964,0.02,0,0.2,0,0,0
0.966,0.02,0,0.2,0,0,0
0.97,0.02,0,0.2,0,0,0
0.97,0,0,0.21,0,0,0
0.97,0,0,0.21,0,0,0
0.974,0,0,0.21,0,0,0
0.975,0,0,0.21,0,0,0
0.98,0,0,0.21,0,0,0
0.981,0,0,0.21,0,0,0
0.981,0,-0.02,0.2,0,0,0
0.981,0,-0.02,0.2,0,0,0
0.982,0,-0.02,0.2,0,0,0
0.984,0,-0.02,0.2,0,0,0
0.991,0,-0.02,0.2,0,0,0
1.002,0,-0.02,0.2,0,0,0
1.002,0,-0.02,0.2,0,0,0
1.003,0,-0.02,0.2,0,0,0
1.003,0,-0.02,0.2,0,0,0
1.003,0,-0.02,0.2,0,0,0
1.003,0,-0.02,0.2,0,0,0
1.004,0,-0.02,0.2,0,0,0
1.004,0.01,-0.01,0.21,0,0,0
1.004,0.01,-0.01,0.21,0,0,0
1.004,0.01,-0.01,0.21,0,0,0
1.005,0.01,-0.01,0.21,0,0,0
1.005,0.01,-0.01,0.21,0,0,0
1.007,0.01,-0.01,0.21,0,0,0
1.01,0.01,-0.01,0.21,0,0,0
1.01,0,-0.01,0.22,0,0,0
1.011,0,-0.01,0.22,0,0,0
1.012,0,-0.01,0.22,0,0,0
1.015,0,-0.01,0.22,0,0,0
1.016,0,-0.01,0.22,0,0,0
1.02,0,-0.01,0.22,0,0,0
1.02,0.02,-0.04,0.21,0,0,0
1.02,0.02,-0.04,0.21,0,-0.01,0
1.025,0.02,-0.04,0.21,0,0,0
1.025,0.02,-0.04,0.21,0,0,0
1.027,0.02,-0.04,0.21,0,0,0
1.041,0.02,-0.04,0.21,0,0,0
1.042,0.02,-0.04,0.21,0,0,0
1.042,0.02,-0.04,0.21,0,0,0
1.042,0.02,-0.04,0.21,0,0,0
1.043,0.02,-0.04,0.21,0,0,0
1.043,0.02,-0.04,0.21,0,0,0
1.043,0.02,-0.04,0.21,0,0,0
1.043,0.03,0,0.24,0,0,0
1.043,0.03,0,0.24,0,0,0
1.044,0.03,0,0.24,0,0,0
1.045,0.03,0,0.24,0,0,0
1.047,0.03,0,0.24,0,0,0
1.049,0.03,0,0.24,0,0,0
1.05,0.02,0,0.22,0,0,0
1.05,0.02,0,0.22,0,0,0
1.052,0.02,0,0.22,0,0,0
1.054,0.02,0,0.22,0,0,0
1.056,0.02,0,0.22,0,0,0
1.06,0.02,0,0.22,0,0.01,0
1.06,0.02,0,0.22,0,0.01,0
1.061,0.02,0,0.22,0,0,0
1.063,0.02,0,0.22,0,0,0
1.064,0.02,0,0.22,0,0,0
1.066,0.02,0,0.22,0,0,0
1.081,0.02,0,0.22,0.01,0,0
1.082,0.02,0,0.22,0,0,0
1.082,0.02,0,0.22,0,0,0
1.082,0.02,0,0.22,0,0,0
1.082,0.02,0,0.22,0,0,0
1.083,0.02,0,0.22,0,0,0
1.083,0.02,0,0.22,0,0,0
1.083,-0.01,0,0.21,0,0,0
1.083,-0.01,0,0.21,0,0,0
1.083,-0.01,0,0.21,0,0,0
1.084,-0.01,0,0.21,0,0,0
1.084,-0.01,0,0.21,0,0,0
1.086,-0.01,0,0.21,0,0,0
1.089,-0.01,0,0.21,0,0,0
1.089,-0.01,0,0.22,0,0,0
1.09,-0.01,0,0.22,0,0,0
1.092,-0.01,0,0.22,0,0,0
1.099,-0.01,0,0.22,0,0,0
1.1,-0.01,0,0.22,0,0,0
1.1,-0.01,0,0.22,0,-0.01,0
1.101,-0.01,-0.04,0.2,0,-0.01,0
1.101,-0.01,-0.04,0.2,0,-0.01,0
1.102,-0.01,-0.04,0.2,-0.01,-0.01,0
1.106,-0.01,-0.04,0.2,-0.01,-0.02,0
1.106,-0.01,-0.04,0.2,-0.01,-0.02,0
1.122,-0.01,-0.04,0.2,-0.01,-0.02,0
1.123,-0.01,-0.04,0.2,-0.02,-0.05,0
1.123,-0.01,-0.04,0.2,-0.03,-0.06,0
1.124,-0.01,-0.04,0.2,-0.03,-0.06,0
1.124,-0.01,-0.04,0.2,-0.03,-0.06,0
1.124,-0.01,-0.04,0.2,-0.03,-0.06,0
1.124,-0.01,-0.04,0.2,-0.03,-0.06,0
1.124,0.01,-0.03,0.15,-0.03,-0.06,0
1.125,0.01,-0.03,0.15,-0.03,-0.06,0
1.125,0,-0.03,0.15,-0.03,-0.06,0
1.126,0,-0.03,0.15,-0.03,-0.06,0
1.126,0,-0.03,0.15,-0.03,-0.07,0
1.126,0,-0.03,0.15,-0.04,-0.08,0
1.133,0,-0.03,0.15,-0.04,-0.09,0
1.133,0,-0.03,0.15,-0.04,-0.09,0
1.134,0,-0.03,0.15,-0.04,-0.09,0
1.134,0,0,0.16,-0.04,-0.09,0
1.137,0,0,0.16,-0.04,-0.1,0
1.138,0,0,0.16,-0.05,-0.1,0
1.14,0,0,0.16,-0.05,-0.1,0
1.141,0,0,0.16,-0.05,-0.1,0
1.141,0.03,0.04,0.21,-0.05,-0.1,0
1.144,0.03,0.04,0.21,-0.05,-0.1,0
1.145,0.03,0.04,0.21,-0.05,-0.1,0
1.146,0.03,0.04,0.21,-0.05,-0.11,0
1.165,0.03,0.04,0.21,-0.05,-0.1,0
1.165,0.03,0.04,0.21,-0.05,-0.09,0
1.165,0.03,0.04,0.21,-0.05,-0.09,0
1.166,0.03,0.04,0.21,-0.05,-0.09,0
1.166,0.03,0.04,0.21,-0.04,-0.08,0
1.166,0.03,0.04,0.21,-0.04,-0.08,0
1.166,0.03,0.04,0.21,-0.04,-0.08,0
1.166,0.03,0.04,0.21,-0.03,-0.07,0
1.167,0.04,0.01,0.29,-0.03,-0.07,0
1.167,0.03,0.02,0.29,-0.03,-0.07,0
1.167,0.03,0.02,0.29,-0.03,-0.06,0
1.168,0.03,0.02,0.29,-0.03,-0.06,0
1.169,0.03,0.02,0.29,-0.02,-0.05,0
1.17,0.03,-0.01,0.32,-0.02,-0.05,0
1.17,0.03,-0.01,0.32,-0.02,-0.04,0
1.172,0.03,-0.01,0.32,-0.01,-0.02,0
1.174,0.03,-0.01,0.32,0,-0.01,0
1.18,0.03,-0.01,0.32,0.01,0.02,0
1.181,0.03,-0.01,0.32,0.01,0.02,0
1.181,0.03,-0.01,0.32,0,0.02,0
1.182,0.03,-0.01,0.32,0.01,0.01,0
1.187,0.03,-0.01,0.32,0.01,0.01,0
1.188,0.03,-0.01,0.32,0.01,0,0
1.188,0.03,-0.01,0.32,0,0,0
1.202,0.03,-0.01,0.32,0,0,0
1.203,0.03,-0.01,0.32,0.01,0.01,0
1.203,0.03,-0.01,0.32,0.01,0.01,0
1.203,0.03,-0.01,0.32,0.01,0.01,0
1.204,0.03,-0.01,0.32,0,0.01,0
1.204,0.03,-0.01,0.32,0.01,0.01,0
1.204,0.03,-0.01,0.32,0.01,0.01,0
1.204,0.03,-0.01,0.32,0.01,0.01,0
1.204,-0.01,-0.04,0.26,0.01,0.01,0
1.205,-0.01,-0.04,0.26,0.01,0.01,0
1.205,-0.01,-0.04,0.26,0.01,0.01,0
1.206,-0.01,-0.04,0.26,0.01,0.03,0
1.211,-0.01,-0.04,0.26,0.02,0.03,0
1.211,-0.01,-0.04,0.26,0.02,0.03,0
1.211,0.07,-0.01,0.29,0.02,0.03,0
1.212,0.07,-0.01,0.29,0.02,0.05,0
1.214,0.07,-0.01,0.29,0.03,0.06,0
1.216,0.07,-0.01,0.29,0.03,0.07,0
1.22,0.07,-0.01,0.29,0.04,0.07,0
1.22,0.07,-0.01,0.24,0.04,0.07,0
1.22,0.07,-0.01,0.24,0.04,0.08,0
1.222,0.07,-0.01,0.24,0.05,0.09,0
1.224,0.07,-0.01,0.24,0.05,0.1,0
1.227,0.07,-0.01,0.24,0.05,0.1,0
1.242,0.07,-0.01,0.24,0.05,0.1,0
1.243,0.07,-0.01,0.24,0.06,0.13,0
1.243,0.07,-0.01,0.24,0.06,0.13,0
1.243,0.07,-0.01,0.24,0.06,0.13,0
1.243,0.07,-0.01,0.24,0.06,0.13,0
1.244,0.07,-0.01,0.24,0.06,0.13,0
1.244,0.07,-0.01,0.24,0.06,0.13,0
1.244,0.05,0.07,0.28,0.06,0.13,0
1.244,0.06,0.07,0.28,0.06,0.13,0
1.245,0.07,0.06,0.28,0.06,0.13,0
1.245,0.07,0.06,0.28,0.07,0.14,0
1.245,0.07,0.06,0.28,0.07,0.15,0
1.247,0.07,0.06,0.28,0.07,0.15,0
1.249,0.07,0.06,0.28,0.08,0.15,0
1.25,0.03,0.06,0.26,0.08,0.15,0
1.25,0.03,0.06,0.26,0.07,0.15,0
1.252,0.03,0.06,0.26,0.07,0.16,0
1.254,0.03,0.06,0.26,0.07,0.16,0
1.256,0.03,0.06,0.26,0.08,0.15,0
1.259,0.03,0.06,0.26,0.08,0.15,0
1.259,0,-0.01,0.14,0.08,0.15,0
1.262,0,-0.01,0.14,0.07,0.14,0
1.263,0,-0.01,0.14,0.07,0.14,0
1.265,0,-0.01,0.14,0.06,0.13,0
1.267,0,-0.01,0.14,0.06,0.12,0
1.283,0,-0.01,0.14,0.05,0.11,0
1.283,0,-0.01,0.14,0.02,0.04,0
1.284,0,-0.01,0.14,0.02,0.04,0
1.284,0,-0.01,0.14,0.02,0.04,0
1.284,0,-0.01,0.14,0.02,0.04,0
1.284,0,-0.01,0.14,0.02,0.03,0
1.293,0,-0.01,0.14,0.01,0.02,0
1.293,-0.09,-0.05,0.01,0.01,0.02,0
1.294,-0.08,-0.06,0.01,0.01,0.02,0
1.294,-0.08,-0.06,0.01,0,0,0
1.294,-0.08,-0.06,0.01,0,-0.01,0
1.294,-0.08,-0.06,0.01,-0.01,-0.03,0
1.294,-0.08,-0.06,0.01,-0.02,-0.05,0
1.295,-0.08,-0.06,0.01,-0.03,-0.06,0
1.295,-0.05,-0.03,-0.02,-0.03,-0.06,0
1.296,-0.05,-0.03,-0.02,-0.03,-0.07,0
1.296,-0.05,-0.03,-0.02,-0.04,-0.09,0
1.296,-0.05,-0.03,-0.02,-0.04,-0.1,0
1.299,-0.05,-0.03,-0.02,-0.05,-0.11,0
1.302,-0.06,-0.05,0.06,-0.05,-0.11,0
1.302,-0.06,-0.05,0.06,-0.05,-0.12,0
1.302,-0.06,-0.05,0.06,-0.06,-0.13,0
1.305,-0.06,-0.05,0.06,-0.06,-0.14,0
1.306,-0.06,-0.05,0.06,-0.07,-0.14,0
1.322,-0.06,-0.05,0.06,-0.07,-0.14,0
1.322,-0.06,-0.05,0.06,-0.05,-0.1,0
1.322,-0.06,-0.05,0.06,-0.05,-0.1,0
1.322,-0.06,-0.05,0.06,-0.04,-0.09,0
1.322,-0.06,-0.05,0.06,-0.04,-0.09,0
1.323,-0.06,-0.05,0.06,-0.03,-0.08,0
1.323,-0.06,-0.05,0.06,-0.03,-0.07,0
1.323,0.05,0,0.41,-0.03,-0.07,0
1.323,0.03,0.01,0.41,-0.03,-0.07,0
1.323,0.03,0.01,0.41,-0.03,-0.06,0
1.324,0.03,0.01,0.41,-0.02,-0.05,0
1.33,0.03,0.01,0.41,-0.01,-0.04,0
1.33,0.03,0.01,0.41,-0.01,-0.03,0
1.33,0.05,0.09,0.24,-0.01,-0.03,0
1.331,0.05,0.09,0.24,-0.01,-0.03,0
1.332,0.05,0.09,0.24,-0.02,-0.03,0
1.335,0.05,0.09,0.24,-0.02,-0.04,0
1.337,0.05,0.09,0.24,-0.02,-0.04,0
1.339,0.05,0.09,0.24,-0.03,-0.05,0
1.34,0.02,0.09,0.14,-0.03,-0.05,0
1.34,0.02,0.09,0.14,-0.03,-0.06,0
1.342,0.02,0.09,0.14,-0.03,-0.06,0
1.346,0.02,0.09,0.14,-0.04,-0.07,0
1.346,0.02,0.09,0.14,-0.04,-0.08,0
1.364,0.02,0.09,0.14,-0.05,-0.09,0
1.364,0.02,0.09,0.14,-0.06,-0.13,0
1.364,0.02,0.09,0.14,-0.07,-0.14,0
1.365,0.02,0.09,0.14,-0.07,-0.14,0
1.365,0.02,0.09,0.14,-0.07,-0.14,0
1.365,0.02,0.09,0.14,-0.07,-0.14,0
1.365,0.02,0.09,0.14,-0.07,-0.14,0
1.365,0.02,0.09,0.14,-0.08,-0.15,0
1.367,0.02,-0.08,0.08,-0.08,-0.15,0
1.367,0,-0.07,0.08,-0.08,-0.15,0
1.368,0,-0.07,0.08,-0.08,-0.16,0
1.368,0,-0.07,0.08,-0.08,-0.16,0
1.37,0,-0.07,0.08,-0.08,-0.17,-0.01
1.37,0,-0.07,0.08,-0.08,-0.12,-0.01
1.37,0,-0.12,0.22,-0.08,-0.12,-0.01
1.372,0,-0.12,0.22,-0.04,-0.06,-0.02
1.374,0,-0.12,0.22,0.04,0,-0.08
1.376,0,-0.12,0.22,0,0.04,-0.15
1.38,0,-0.12,0.22,-0.02,0,-0.27
1.381,1.33,0.54,-0.12,-0.02,0,-0.27
1.382,1.33,0.54,-0.12,-0.03,-0.02,-0.33
1.387,1.33,0.54,-0.12,-0.03,-0.06,-0.45
1.387,1.33,0.54,-0.12,-0.04,-0.05,-0.57
1.388,1.33,0.54,-0.12,-0.04,-0.04,-0.64
1.401,1.33,0.54,-0.12,-0.05,-0.02,-0.77
1.402,1.33,0.54,-0.12,-0.06,-0.03,-1.05
1.403,1.33,0.54,-0.12,-0.06,-0.03,-1.05
1.403,1.33,0.54,-0.12,-0.06,-0.03,-1.07
1.403,1.33,0.54,-0.12,-0.06,-0.03,-1.07
1.403,1.33,0.54,-0.12,-0.06,-0.03,-1.07
1.404,1.33,0.54,-0.12,-0.05,-0.03,-1.07
1.404,-0.01,-1.75,0.24,-0.05,-0.03,-1.07
1.404,-0.01,-1.74,0.24,-0.05,-0.03,-1.07
1.405,-0.01,-1.74,0.24,-0.05,-0.03,-1.07
1.405,-0.01,-1.74,0.24,-0.05,-0.02,-1.04
1.406,-0.01,-1.74,0.24,-0.06,-0.02,-1
1.41,-0.01,-1.74,0.24,-0.06,-0.03,-0.98
1.411,0.03,-1.51,0.37,-0.06,-0.03,-0.98
1.411,0.03,-1.51,0.37,-0.06,-0.04,-0.93
1.413,0.03,-1.51,0.37,-0.06,-0.05,-0.89
1.414,0.03,-1.51,0.37,-0.07,-0.04,-0.86
1.416,0.03,-1.51,0.37,-0.09,-0.04,-0.85
1.419,0.03,-1.51,0.37,-0.14,-0.03,-0.82
1.419,0.17,-0.22,-0.52,-0.14,-0.03,-0.82
1.42,0.17,-0.22,-0.52,-0.18,-0.03,-0.79
1.422,0.17,-0.22,-0.52,-0.23,-0.03,-0.76
1.424,0.17,-0.22,-0.52,-0.2,0.02,-0.73
1.426,0.17,-0.22,-0.52,-0.17,0,-0.67
1.442,0.17,-0.22,-0.52,-0.14,-0.01,-0.61
1.443,0.17,-0.22,-0.52,-0.17,0.08,-0.58
1.443,0.17,-0.22,-0.52,-0.17,0.08,-0.58
1.443,0.17,-0.22,-0.52,-0.17,0.08,-0.58
1.443,0.17,-0.22,-0.52,-0.18,0.07,-0.58
1.444,0.17,-0.22,-0.52,-0.19,0.07,-0.58
1.444,0.17,-0.22,-0.52,-0.19,0.07,-0.58
1.444,-0.43,-0.2,0.44,-0.19,0.07,-0.58
1.444,-0.42,-0.16,0.44,-0.19,0.07,-0.58
1.445,-0.42,-0.16,0.44,-0.22,0.07,-0.56
1.445,-0.42,-0.16,0.44,-0.25,0.08,-0.53
1.446,-0.42,-0.16,0.44,-0.26,0.08,-0.52
1.449,-0.42,-0.16,0.44,-0.27,0.07,-0.49
1.449,-0.27,0.13,0.62,-0.27,0.07,-0.49
1.45,-0.27,0.13,0.62,-0.27,0.05,-0.45
1.452,-0.27,0.13,0.62,-0.25,0.04,-0.42
1.454,-0.27,0.13,0.62,-0.22,0.04,-0.33
1.455,-0.27,0.13,0.62,-0.17,0.03,-0.25
1.458,-0.27,0.13,0.62,-0.12,-0.01,-0.16
1.459,-0.63,1.44,0.31,-0.12,-0.01,-0.16
1.46,-0.63,1.44,0.31,-0.1,-0.04,-0.13
1.462,-0.63,1.44,0.31,-0.05,-0.13,-0.06
1.464,-0.63,1.44,0.31,-0.02,-0.23,-0.02
1.467,-0.63,1.44,0.31,-0.01,-0.3,0.02
1.481,-0.63,1.44,0.31,-0.01,-0.33,0.03
1.482,-0.63,1.44,0.31,-0.2,-0.19,0.1
1.482,-0.63,1.44,0.31,-0.23,-0.14,0.12
1.482,-0.63,1.44,0.31,-0.25,-0.1,0.14
1.483,-0.63,1.44,0.31,-0.25,-0.1,0.14
1.483,-0.63,1.44,0.31,-0.25,-0.1,0.14
1.483,-0.63,1.44,0.31,-0.25,-0.1,0.14
1.483,-0.69,-0.16,-0.79,-0.25,-0.1,0.14
1.484,-0.72,-0.16,-0.79,-0.25,-0.1,0.14
1.484,-0.73,-0.14,-0.79,-0.25,-0.1,0.14
1.484,-0.73,-0.14,-0.79,-0.27,-0.05,0.16
1.484,-0.73,-0.14,-0.79,-0.3,0.01,0.19
1.486,-0.73,-0.14,-0.79,-0.32,0.05,0.22
1.489,-0.73,-0.14,-0.79,-0.32,0.07,0.26
1.489,-0.38,-0.7,-0.08,-0.32,0.07,0.26
1.489,-0.38,-0.7,-0.08,-0.31,0.07,0.27
1.491,-0.38,-0.7,-0.08,-0.29,0.05,0.3
1.498,-0.38,-0.7,-0.08,-0.27,0.01,0.31
1.499,-0.38,-0.7,-0.08,-0.25,-0.01,0.31
1.499,-0.38,-0.7,-0.08,-0.22,-0.06,0.31
1.499,0.21,-0.59,0.77,-0.22,-0.06,0.31
1.5,0.21,-0.59,0.77,-0.2,-0.11,0.29
1.503,0.21,-0.59,0.77,-0.18,-0.15,0.26
1.504,0.21,-0.59,0.77,-0.17,-0.17,0.24
1.507,0.21,-0.59,0.77,-0.16,-0.21,0.21
1.522,0.21,-0.59,0.77,-0.16,-0.26,0.19
1.523,0.21,-0.59,0.77,-0.16,-0.87,0.2
1.524,0.21,-0.59,0.77,-0.16,-0.87,0.2
1.524,0.21,-0.59,0.77,-0.16,-0.87,0.2
1.524,0.21,-0.59,0.77,-0.16,-0.87,0.2
1.524,0.21,-0.59,0.77,-0.16,-0.97,0.21
1.525,0.21,-0.59,0.77,-0.16,-1.08,0.22
1.525,0.21,-0.59,0.77,-0.16,-1.3,0.25
1.526,0.23,0.53,3.52,-0.16,-1.3,0.25
1.526,0.12,0.57,3.52,-0.16,-1.3,0.25
1.526,0.12,0.57,3.52,-0.15,-1.55,0.29
1.527,0.12,0.57,3.52,-0.15,-1.67,0.31
1.532,0.12,0.57,3.52,-0.14,-1.94,0.37
1.532,-0.07,0.94,4.67,-0.14,-1.94,0.37
1.533,-0.07,0.94,4.67,-0.13,-2.22,0.44
1.533,-0.07,0.94,4.67,-0.11,-2.47,0.55
1.534,-0.07,0.94,4.67,-0.1,-2.59,0.62
1.536,-0.07,0.94,4.67,-0.09,-2.79,0.75
1.538,-0.07,0.94,4.67,-0.09,-2.97,0.87
1.538,1.27,1.45,3.25,-0.09,-2.97,0.87
1.539,1.27,1.45,3.25,-0.1,-3.05,0.93
1.542,1.27,1.45,3.25,-0.11,-3.17,1.02
1.544,1.27,1.45,3.25,-0.13,-3.26,1.08
1.548,1.27,1.45,3.25,-0.15,-3.3,1.1
1.561,1.27,1.45,3.25,-0.17,-3.3,1.11
1.561,1.27,1.45,3.25,-0.23,-3.37,0.86
1.562,1.27,1.45,3.25,-0.23,-3.37,0.86
1.562,1.27,1.45,3.25,-0.23,-3.37,0.86
1.562,1.27,1.45,3.25,-0.22,-3.38,0.85
1.563,1.27,1.45,3.25,-0.22,-3.4,0.84
1.564,1.27,1.45,3.25,-0.22,-3.4,0.84
1.564,2.04,1.35,0.32,-0.22,-3.4,0.84
1.564,1.4,1.41,0.41,-0.22,-3.4,0.84
1.565,1.08,1.45,0.47,-0.22,-3.4,0.84
1.565,1.08,1.45,0.47,-0.21,-3.41,0.84
1.565,1.08,1.45,0.47,-0.19,-3.42,0.84
1.566,1.08,1.45,0.47,-0.18,-3.43,0.85
1.568,1.08,1.45,0.47,-0.17,-3.41,0.87
1.569,0.63,1.19,-0.1,-0.17,-3.41,0.87
1.569,0.63,1.19,-0.1,-0.16,-3.4,0.88
1.572,0.63,1.19,-0.1,-0.15,-3.37,0.89
1.573,0.63,1.19,-0.1,-0.14,-3.32,0.89
1.575,0.63,1.19,-0.1,-0.13,-3.27,0.88
1.579,0.63,1.19,-0.1,-0.13,-3.24,0.88
1.58,0.55,0.38,-0.97,-0.13,-3.24,0.88
1.581,0.55,0.38,-0.97,-0.12,-3.16,0.86
1.582,0.55,0.38,-0.97,-0.12,-3.09,0.84
1.583,0.55,0.38,-0.97,-0.12,-3.05,0.83
1.585,0.55,0.38,-0.97,-0.12,-2.97,0.8
1.606,0.55,0.38,-0.97,-0.11,-2.89,0.77
1.607,0.55,0.38,-0.97,-0.08,-2.86,0.74
1.607,0.55,0.38,-0.97,-0.08,-2.86,0.74
1.607,0.55,0.38,-0.97,-0.07,-2.89,0.8
1.607,0.55,0.38,-0.97,-0.07,-2.89,0.8
1.607,0.55,0.38,-0.97,-0.05,-2.9,0.88
1.607,0.55,0.38,-0.97,-0.05,-2.9,0.88
1.608,1.36,-0.14,-0.12,-0.05,-2.9,0.88
1.608,1.09,-0.11,-0.04,-0.05,-2.9,0.88
1.608,0.83,-0.08,0.05,-0.05,-2.9,0.88
1.608,0.83,-0.08,0.05,-0.03,-2.94,0.99
1.608,0.83,-0.08,0.05,0.01,-3.03,1.23
1.608,0.83,-0.08,0.05,0.05,-3.04,1.36
1.611,0.83,-0.08,0.05,0.12,-3.05,1.62
1.611,0.83,-0.08,0.05,0.19,-3.02,1.8
1.612,0.58,1.18,-0.21,0.19,-3.02,1.8
1.612,0.58,1.18,-0.21,0.27,-2.96,1.68
1.614,0.58,1.18,-0.21,0.29,-2.89,1.42
1.616,0.58,1.18,-0.21,0.28,-2.72,0.54
1.619,0.58,1.18,-0.21,0.16,-2.44,-0.16
1.619,-2.33,-2.35,-4.05,0.16,-2.44,-0.16
1.62,-2.33,-2.35,-4.05,-0.02,-2.03,-0.42
1.622,-2.33,-2.35,-4.05,-0.12,-1.81,-0.47
1.624,-2.33,-2.35,-4.05,-0.33,-1.33,-0.55
1.626,-2.33,-2.35,-4.05,-0.48,-0.87,-0.57
1.642,-2.33,-2.35,-4.05,-0.52,-0.68,-0.53
1.643,-2.33,-2.35,-4.05,-0.22,-0.09,0.2
1.643,-2.33,-2.35,-4.05,-0.22,-0.09,0.2
1.643,-2.33,-2.35,-4.05,-0.22,-0.09,0.2
1.644,-2.33,-2.35,-4.05,-0.18,-0.12,0.26
1.644,-2.33,-2.35,-4.05,-0.15,-0.14,0.31
1.644,-2.33,-2.35,-4.05,-0.15,-0.14,0.31
1.644,-2.33,-2.35,-4.05,-0.1,-0.19,0.41
1.644,-3.6,1.8,2.11,-0.1,-0.19,0.41
1.644,-3.67,1.86,2.15,-0.1,-0.19,0.41
1.645,-3.68,1.88,2.15,-0.1,-0.19,0.41
1.645,-3.68,1.88,2.15,-0.09,-0.2,0.45
1.649,-3.68,1.88,2.15,-0.08,-0.21,0.54
1.65,-3.68,1.88,2.15,-0.1,-0.19,0.61
1.651,-1.65,2.31,0.89,-0.1,-0.19,0.61
1.651,-1.65,2.31,0.89,-0.11,-0.17,0.64
1.652,-1.65,2.31,0.89,-0.16,-0.13,0.67
1.654,-1.65,2.31,0.89,-0.23,-0.08,0.7
1.656,-1.65,2.31,0.89,-0.32,-0.02,0.7
1.659,-1.65,2.31,0.89,-0.36,0.01,0.7
1.66,0.83,2.29,-0.35,-0.36,0.01,0.7
1.661,0.83,2.29,-0.35,-0.46,0.07,0.68
1.662,0.83,2.29,-0.35,-0.57,0.16,0.65
1.666,0.83,2.29,-0.35,-0.68,0.26,0.6
1.666,0.83,2.29,-0.35,-0.75,0.31,0.57
1.684,0.83,2.29,-0.35,-0.88,0.42,0.5
1.684,0.83,2.29,-0.35,-1.54,0.86,0.04
1.685,0.83,2.29,-0.35,-1.54,0.86,0.04
1.685,0.83,2.29,-0.35,-1.54,0.86,0.04
1.685,0.83,2.29,-0.35,-1.63,0.89,-0.03
1.686,0.83,2.29,-0.35,-1.72,0.93,-0.11
1.686,0.83,2.29,-0.35,-1.72,0.93,-0.11
1.686,0.83,2.29,-0.35,-1.88,1.03,-0.28
1.686,5.9,0.4,-1.82,-1.88,1.03,-0.28
1.686,6.02,0.63,-1.85,-1.88,1.03,-0.28
1.687,6.1,0.78,-1.86,-1.88,1.03,-0.28
1.687,6.1,0.78,-1.86,-2,1.12,-0.45
1.687,6.1,0.78,-1.86,-2.07,1.19,-0.62
1.689,6.1,0.78,-1.86,-2.08,1.23,-0.7
1.689,5.42,0.21,4.36,-2.08,1.23,-0.7
1.69,5.42,0.21,4.36,-2.04,1.33,-0.87
1.692,5.42,0.21,4.36,-1.92,1.45,-1.01
1.699,5.42,0.21,4.36,-1.83,1.51,-1.07
1.7,5.42,0.21,4.36,-1.58,1.64,-1.19
1.705,5.42,0.21,4.36,-1.23,1.79,-1.27
1.706,5.42,0.21,4.36,-0.79,1.96,-1.32
1.706,2.9,-1.17,15.95,-0.79,1.96,-1.32
1.706,2.9,-1.17,15.95,-0.54,2.04,-1.34
1.707,2.9,-1.17,15.95,0.03,2.28,-1.36
1.707,2.9,-1.17,15.95,0.44,1.85,-1.28
1.723,2.9,-1.17,15.95,1.01,1.52,-1.07
1.724,2.9,-1.17,15.95,3.93,2.03,-0.28
1.724,2.9,-1.17,15.95,4.16,2.06,-0.25
1.724,2.9,-1.17,15.95,4.38,2.1,-0.23
1.724,2.9,-1.17,15.95,4.38,2.1,-0.23
1.725,2.9,-1.17,15.95,4.38,2.1,-0.23
1.725,2.9,-1.17,15.95,4.38,2.1,-0.23
1.725,2.9,-1.17,15.95,4.7,2.14,-0.27
1.725,0.46,-1.04,21.9,4.7,2.14,-0.27
1.726,0.58,-1.16,21.84,4.7,2.14,-0.27
1.726,0.77,-1.54,21.74,4.7,2.14,-0.27
1.727,0.77,-1.54,21.74,4.81,2.16,-0.33
1.727,0.77,-1.54,21.74,4.97,2.21,-0.49
1.733,0.77,-1.54,21.74,5.07,2.3,-0.68
1.734,6.21,-3.1,11.25,5.07,2.3,-0.68
1.734,6.21,-3.1,11.25,5.1,2.45,-0.89
1.735,6.21,-3.1,11.25,5.11,2.55,-0.99
1.735,6.21,-3.1,11.25,5.09,2.78,-1.19
1.736,6.21,-3.1,11.25,5.07,3.03,-1.37
1.739,6.21,-3.1,11.25,5.05,3.17,-1.46
1.739,5.91,-2.73,5.59,5.05,3.17,-1.46
1.74,5.91,-2.73,5.59,5,3.43,-1.62
1.742,5.91,-2.73,5.59,4.95,3.69,-1.75
1.744,5.91,-2.73,5.59,4.88,3.94,-1.85
1.746,5.91,-2.73,5.59,4.85,4.06,-1.89
1.761,5.91,-2.73,5.59,4.78,4.29,-1.93
1.762,5.91,-2.73,5.59,4.46,4.66,-1.97
1.763,5.91,-2.73,5.59,4.46,4.66,-1.97
1.763,5.91,-2.73,5.59,4.46,4.66,-1.97
1.763,5.91,-2.73,5.59,4.42,4.64,-1.96
1.764,5.91,-2.73,5.59,4.39,4.62,-1.95
1.764,5.91,-2.73,5.59,4.39,4.62,-1.95
1.764,-1.48,-2.99,2.89,4.39,4.62,-1.95
1.764,-0.6,-3.94,2.76,4.39,4.62,-1.95
1.764,-0.6,-3.94,2.76,4.32,4.59,-1.93
1.766,-0.6,-3.94,2.76,4.28,4.54,-1.9
1.767,-0.6,-3.94,2.76,4.26,4.52,-1.88
1.769,-0.6,-3.94,2.76,4.25,4.51,-1.87
1.769,-0.91,-2.86,3.33,4.25,4.51,-1.87
1.77,-0.91,-2.86,3.33,4.24,4.47,-1.86
1.772,-0.91,-2.86,3.33,4.25,4.41,-1.87
1.774,-0.91,-2.86,3.33,4.27,4.34,-1.88
1.776,-0.91,-2.86,3.33,4.28,4.3,-1.89
1.782,-0.91,-2.86,3.33,4.31,4.23,-1.9
1.783,0.75,-1.45,4.26,4.31,4.23,-1.9
1.784,0.75,-1.45,4.26,4.34,4.16,-1.93
1.784,0.75,-1.45,4.26,4.37,4.13,-1.95
1.784,0.75,-1.45,4.26,4.42,4.07,-2
1.786,0.75,-1.45,4.26,4.48,4.03,-2.05
1.802,0.75,-1.45,4.26,4.56,3.99,-2.11
1.81,0.75,-1.45,4.26,4.91,3.87,-2.4
1.81,0.75,-1.45,4.26,4.91,3.87,-2.4
1.81,0.75,-1.45,4.26,4.91,3.87,-2.4
1.81,0.75,-1.45,4.26,4.91,3.87,-2.4
1.81,0.75,-1.45,4.26,4.95,3.83,-2.45
1.81,0.75,-1.45,4.26,4.99,3.79,-2.5
1.811,3.89,-2.01,4.96,4.99,3.79,-2.5
1.811,4.31,-2.46,5.04,4.99,3.79,-2.5
1.811,4.74,-2.92,5.17,4.99,3.79,-2.5
1.811,4.74,-2.92,5.17,5.07,3.76,-2.6
1.811,4.74,-2.92,5.17,5.11,3.76,-2.65
1.812,4.74,-2.92,5.17,5.2,3.77,-2.75
1.812,4.74,-2.92,5.17,5.28,3.77,-2.83
1.812,5.05,-3.99,3.76,5.28,3.77,-2.83
1.812,5.05,-3.99,3.76,5.34,3.75,-2.91
1.812,5.05,-3.99,3.76,5.37,3.74,-2.95
1.816,5.05,-3.99,3.76,5.43,3.7,-3.02
1.818,5.05,-3.99,3.76,5.47,3.66,-3.1
1.819,5.05,-3.99,3.76,5.51,3.6,-3.16
1.819,4.71,-4.69,2.12,5.51,3.6,-3.16
1.82,4.71,-4.69,2.12,5.52,3.57,-3.19
1.822,4.71,-4.69,2.12,5.54,3.49,-3.25
1.824,4.71,-4.69,2.12,5.55,3.41,-3.3
1.826,4.71,-4.69,2.12,5.55,3.37,-3.32
1.842,4.71,-4.69,2.12,5.55,3.28,-3.37
1.843,4.71,-4.69,2.12,5.44,2.81,-3.53
1.843,4.71,-4.69,2.12,5.41,2.71,-3.54
1.844,4.71,-4.69,2.12,5.39,2.62,-3.54
1.844,4.71,-4.69,2.12,5.39,2.62,-3.54
1.844,4.71,-4.69,2.12,5.39,2.62,-3.54
1.844,4.71,-4.69,2.12,5.39,2.62,-3.54
1.844,2.82,-5.52,-0.43,5.39,2.62,-3.54
1.845,3.25,-5.94,-0.13,5.39,2.62,-3.54
1.845,3.66,-6.32,0.19,5.39,2.62,-3.54
1.845,3.66,-6.32,0.19,5.36,2.55,-3.53
1.848,3.66,-6.32,0.19,5.32,2.44,-3.51
1.848,3.66,-6.32,0.19,5.31,2.44,-3.49
1.85,3.66,-6.32,0.19,5.31,2.47,-3.48
1.85,2.49,-5.99,-0.35,5.31,2.47,-3.48
1.851,2.49,-5.99,-0.35,5.31,2.5,-3.48
1.852,2.49,-5.99,-0.35,5.29,2.58,-3.49
1.855,2.49,-5.99,-0.35,5.26,2.67,-3.48
1.856,2.49,-5.99,-0.35,5.24,2.72,-3.48
1.859,2.49,-5.99,-0.35,5.18,2.79,-3.46
1.86,2.44,-6.38,-2.22,5.18,2.79,-3.46
1.862,2.44,-6.38,-2.22,5.1,2.85,-3.45
1.862,2.44,-6.38,-2.22,5.02,2.91,-3.42
1.864,2.44,-6.38,-2.22,4.98,2.95,-3.41
1.866,2.44,-6.38,-2.22,4.89,3.03,-3.39
1.883,2.44,-6.38,-2.22,4.8,3.09,-3.36
1.884,2.44,-6.38,-2.22,4.38,3.03,-3.24
1.884,2.44,-6.38,-2.22,4.38,3.03,-3.24
1.884,2.44,-6.38,-2.22,4.38,3.03,-3.24
1.884,2.44,-6.38,-2.22,4.38,3.03,-3.24
1.885,2.44,-6.38,-2.22,4.32,2.99,-3.23
1.885,2.44,-6.38,-2.22,4.27,2.95,-3.22
1.885,2.44,-6.38,-2.22,4.14,2.82,-3.2
1.886,0.97,-4.48,-5.86,4.14,2.82,-3.2
1.886,1.79,-4.89,-5.11,4.14,2.82,-3.2
1.886,1.79,-4.89,-5.11,4.01,2.67,-3.18
1.887,1.79,-4.89,-5.11,3.95,2.6,-3.17
1.89,1.79,-4.89,-5.11,3.82,2.44,-3.16
1.89,1.39,-3.41,-6.06,3.82,2.44,-3.16
1.89,1.39,-3.41,-6.06,3.7,2.26,-3.15
1.892,1.39,-3.41,-6.06,3.64,2.18,-3.15
1.911,1.39,-3.41,-6.06,3.53,2.01,-3.15
1.912,1.39,-3.41,-6.06,3.41,1.84,-3.18
1.912,1.39,-3.41,-6.06,3.25,1.67,-3.24
1.912,1.95,-4.86,-6.18,3.25,1.67,-3.24
1.912,1.95,-4.86,-6.18,3.19,1.58,-3.26
1.913,1.95,-4.86,-6.18,3.08,1.41,-3.31
1.913,1.95,-4.86,-6.18,3,1.21,-3.35
1.913,1.95,-4.86,-6.18,2.91,0.96,-3.38
1.922,1.95,-4.86,-6.18,2.87,0.84,-3.4
1.923,1.95,-4.86,-6.18,2.44,-0.41,-3.51
1.923,1.95,-4.86,-6.18,2.37,-0.57,-3.52
1.923,1.95,-4.86,-6.18,2.37,-0.57,-3.52
1.923,1.95,-4.86,-6.18,2.37,-0.57,-3.52
1.923,1.95,-4.86,-6.18,2.31,-0.72,-3.53
1.923,1.95,-4.86,-6.18,2.24,-0.87,-3.53
1.923,1.95,-4.86,-6.18,2.17,-1.01,-3.54
1.924,2.2,-4.14,-6.21,2.17,-1.01,-3.54
1.924,2.64,-4.11,-5.87,2.17,-1.01,-3.54
1.924,2.83,-4.07,-5.75,2.17,-1.01,-3.54
1.924,2.83,-4.07,-5.75,2.04,-1.25,-3.55
1.926,2.83,-4.07,-5.75,1.93,-1.44,-3.56
1.929,2.83,-4.07,-5.75,1.81,-1.61,-3.56
1.93,2.74,-3.45,-5.88,1.81,-1.61,-3.56
1.93,2.74,-3.45,-5.88,1.75,-1.68,-3.57
1.932,2.74,-3.45,-5.88,1.65,-1.8,-3.57
1.934,2.74,-3.45,-5.88,1.55,-1.91,-3.56
1.936,2.74,-3.45,-5.88,1.44,-1.99,-3.56
1.939,2.74,-3.45,-5.88,1.39,-2.03,-3.54
1.939,3.13,-4.33,-6.06,1.39,-2.03,-3.54
1.94,3.13,-4.33,-6.06,1.28,-2.1,-3.52
1.942,3.13,-4.33,-6.06,1.19,-2.14,-3.5
1.946,3.13,-4.33,-6.06,1.14,-2.17,-3.48
1.949,3.13,-4.33,-6.06,1.05,-2.2,-3.45
1.963,3.13,-4.33,-6.06,0.99,-2.22,-3.4
1.963,3.13,-4.33,-6.06,0.84,-2.26,-3.06
1.967,3.13,-4.33,-6.06,0.83,-2.22,-3
1.967,3.13,-4.33,-6.06,0.82,-2.17,-2.93
1.967,3.13,-4.33,-6.06,0.82,-2.17,-2.93
1.967,3.13,-4.33,-6.06,0.82,-2.17,-2.93
1.968,3.13,-4.33,-6.06,0.81,-2.12,-2.87
1.968,3.13,-4.33,-6.06,0.8,-2.06,-2.8
1.968,-3.54,-1.24,-4.1,0.8,-2.06,-2.8
1.969,-3.46,-1.11,-4.17,0.8,-2.06,-2.8
1.969,-3.41,-0.98,-4.24,0.8,-2.06,-2.8
1.969,-3.41,-0.98,-4.24,0.76,-1.92,-2.67
1.969,-3.41,-0.98,-4.24,0.74,-1.85,-2.59
1.97,-3.41,-0.98,-4.24,0.67,-1.73,-2.44
1.97,-3.41,-0.98,-4.24,0.59,-1.6,-2.29
1.971,-5.33,0.67,-5.29,0.59,-1.6,-2.29
1.972,-5.33,0.67,-5.29,0.49,-1.48,-2.13
1.974,-5.33,0.67,-5.29,0.44,-1.42,-2.05
1.976,-5.33,0.67,-5.29,0.32,-1.3,-1.89
1.98,-5.33,0.67,-5.29,0.19,-1.18,-1.74
1.98,-3.94,-0.21,-6.03,0.19,-1.18,-1.74
1.981,-3.94,-0.21,-6.03,0.06,-1.08,-1.6
1.983,-3.94,-0.21,-6.03,-0.01,-1.04,-1.53
1.984,-3.94,-0.21,-6.03,-0.16,-0.97,-1.39
1.986,-3.94,-0.21,-6.03,-0.31,-0.91,-1.26
2.003,-3.94,-0.21,-6.03,-0.38,-0.9,-1.19
2.004,-3.94,-0.21,-6.03,-1,-1.42,-0.68
2.004,-3.94,-0.21,-6.03,-1.07,-1.54,-0.62
2.004,-3.94,-0.21,-6.03,-1.07,-1.54,-0.62
2.004,-3.94,-0.21,-6.03,-1.07,-1.54,-0.62
2.005,-3.94,-0.21,-6.03,-1.14,-1.65,-0.56
2.005,-3.94,-0.21,-6.03,-1.21,-1.76,-0.5
2.005,-0.57,-2.52,-4.13,-1.21,-1.76,-0.5
2.005,-0.61,-2.33,-4.35,-1.21,-1.76,-0.5
2.005,-0.61,-2.33,-4.35,-1.33,-2,-0.39
2.006,-0.61,-2.33,-4.35,-1.4,-2.11,-0.33
2.006,-0.61,-2.33,-4.35,-1.51,-2.32,-0.22
2.01,-0.61,-2.33,-4.35,-1.61,-2.53,-0.12
2.01,-0.61,-2.33,-4.35,-1.65,-2.64,-0.08
2.011,0.08,-2.45,-3.52,-1.65,-2.64,-0.08
2.013,0.08,-2.45,-3.52,-1.73,-2.86,0
2.015,0.08,-2.45,-3.52,-1.79,-3.08,0.07
2.017,0.08,-2.45,-3.52,-1.83,-3.31,0.13
2.019,0.08,-2.45,-3.52,-1.85,-3.43,0.17
2.02,0.4,-2.44,-2.07,-1.85,-3.43,0.17
2.021,0.4,-2.44,-2.07,-1.86,-3.64,0.22
2.023,0.4,-2.44,-2.07,-1.87,-3.85,0.26
2.024,0.4,-2.44,-2.07,-1.86,-4.06,0.3
2.026,0.4,-2.44,-2.07,-1.85,-4.16,0.31
2.042,0.4,-2.44,-2.07,-1.81,-4.38,0.35
2.042,0.4,-2.44,-2.07,-1.58,-5.24,0.38
2.043,0.4,-2.44,-2.07,-1.58,-5.24,0.38
2.043,0.4,-2.44,-2.07,-1.58,-5.24,0.38
2.043,0.4,-2.44,-2.07,-1.55,-5.35,0.38
2.044,0.4,-2.44,-2.07,-1.55,-5.35,0.38
2.044,0.4,-2.44,-2.07,-1.51,-5.46,0.37
2.044,1.48,-1.53,0.95,-1.51,-5.46,0.37
2.045,0.77,-1.33,0.33,-1.51,-5.46,0.37
2.045,0.35,-1.23,0.03,-1.51,-5.46,0.37
2.045,0.35,-1.23,0.03,-1.44,-5.69,0.36
2.046,0.35,-1.23,0.03,-1.37,-5.91,0.33
2.046,0.35,-1.23,0.03,-1.3,-6.14,0.29
2.05,0.35,-1.23,0.03,-1.27,-6.25,0.27
2.05,1.72,-1.59,0.6,-1.27,-6.25,0.27
2.051,1.72,-1.59,0.6,-1.2,-6.46,0.22
2.052,1.72,-1.59,0.6,-1.16,-6.59,0.16
2.055,1.72,-1.59,0.6,-1.16,-6.59,0.12
2.056,1.72,-1.59,0.6,-1.16,-6.46,0.04
2.059,1.72,-1.59,0.6,-1.15,-6.25,-0.03
2.06,1.58,-2.09,0.48,-1.15,-6.25,-0.03
2.06,1.58,-2.09,0.48,-1.1,-6.14,-0.07
2.063,1.58,-2.09,0.48,-1.05,-6.12,-0.09
2.065,1.58,-2.09,0.48,-0.94,-6.13,-0.1
2.067,1.58,-2.09,0.48,-0.8,-6.17,-0.1
2.084,1.58,-2.09,0.48,-0.68,-6.15,-0.1
2.085,1.58,-2.09,0.48,-0.22,-4.52,-0.1
2.085,1.58,-2.09,0.48,-0.17,-4.36,-0.11
2.085,1.58,-2.09,0.48,-0.12,-4.19,-0.11
2.086,1.58,-2.09,0.48,-0.12,-4.19,-0.11
2.086,1.58,-2.09,0.48,-0.12,-4.19,-0.11
2.086,1.58,-2.09,0.48,-0.12,-4.19,-0.11
2.086,1.58,-2.09,0.48,-0.03,-3.88,-0.12
2.086,1.58,-2.09,0.48,0.01,-3.71,-0.13
2.087,0.3,-2.22,1.48,0.01,-3.71,-0.13
2.087,-0.21,-2.16,1.28,0.01,-3.71,-0.13
2.088,-0.58,-2.14,1.17,0.01,-3.71,-0.13
2.088,-0.58,-2.14,1.17,0.07,-3.37,-0.15
2.089,-0.58,-2.14,1.17,0.14,-3.04,-0.17
2.09,-0.24,-2.43,-0.47,0.14,-3.04,-0.17
2.09,-0.24,-2.43,-0.47,0.2,-2.69,-0.18
2.092,-0.24,-2.43,-0.47,0.23,-2.52,-0.2
2.1,-0.24,-2.43,-0.47,0.29,-2.16,-0.23
2.107,-0.24,-2.43,-0.47,0.35,-1.81,-0.26
2.108,-0.24,-2.43,-0.47,0.37,-1.62,-0.29
2.11,-0.24,-2.43,-0.47,0.43,-1.27,-0.34
2.11,-0.31,-2.83,-0.61,0.43,-1.27,-0.34
2.111,-0.31,-2.83,-0.61,0.46,-0.94,-0.4
2.112,-0.31,-2.83,-0.61,0.48,-0.66,-0.46
2.112,-0.31,-2.83,-0.61,0.48,-0.54,-0.49
2.121,-0.31,-2.83,-0.61,0.46,-0.33,-0.55
2.122,-0.31,-2.83,-0.61,0.17,0,-0.75
2.122,-0.31,-2.83,-0.61,0.17,0,-0.75
2.124,-0.31,-2.83,-0.61,0.17,0,-0.75
2.124,-0.31,-2.83,-0.61,0.11,0,-0.77
2.125,-0.31,-2.83,-0.61,0.11,0,-0.77
2.125,-0.31,-2.83,-0.61,0.06,-0.02,-0.79
2.125,-0.55,-0.68,-0.38,0.06,-0.02,-0.79
2.125,-0.52,-0.7,-0.36,0.06,-0.02,-0.79
2.125,-0.52,-0.7,-0.36,-0.04,-0.05,-0.81
2.125,-0.52,-0.7,-0.36,-0.12,-0.09,-0.82
2.126,-0.52,-0.7,-0.36,-0.19,-0.14,-0.81
2.13,-0.52,-0.7,-0.36,-0.22,-0.17,-0.8
2.13,-1.29,-0.72,0.1,-0.22,-0.17,-0.8
2.13,-1.29,-0.72,0.1,-0.27,-0.21,-0.77
2.132,-1.29,-0.72,0.1,-0.3,-0.23,-0.72
2.136,-1.29,-0.72,0.1,-0.32,-0.23,-0.67
2.136,-1.29,-0.72,0.1,-0.32,-0.22,-0.65
2.139,-1.29,-0.72,0.1,-0.32,-0.18,-0.59
2.139,-2.09,-0.77,0.9,-0.32,-0.18,-0.59
2.14,-2.09,-0.77,0.9,-0.32,-0.12,-0.52
2.142,-2.09,-0.77,0.9,-0.31,-0.08,-0.49
2.145,-2.09,-0.77,0.9,-0.29,0.01,-0.41
2.146,-2.09,-0.77,0.9,-0.26,0.1,-0.33
2.163,-2.09,-0.77,0.9,-0.22,0.2,-0.24
2.164,-2.09,-0.77,0.9,-0.04,0.56,0.15
2.164,-2.09,-0.77,0.9,-0.04,0.56,0.15
2.164,-2.09,-0.77,0.9,-0.04,0.56,0.15
2.164,-2.09,-0.77,0.9,-0.04,0.56,0.15
2.164,-2.09,-0.77,0.9,-0.01,0.6,0.2
2.165,-2.09,-0.77,0.9,0.03,0.64,0.24
2.165,-2.21,-0.9,1.73,0.03,0.64,0.24
2.165,-2.14,-0.87,1.74,0.03,0.64,0.24
2.165,-2.14,-0.87,1.74,0.1,0.7,0.33
2.166,-2.14,-0.87,1.74,0.14,0.73,0.38
2.166,-2.14,-0.87,1.74,0.21,0.77,0.45
2.169,-2.14,-0.87,1.74,0.28,0.77,0.53
2.17,-1.38,-0.47,1.92,0.28,0.77,0.53
2.17,-1.38,-0.47,1.92,0.34,0.75,0.59
2.172,-1.38,-0.47,1.92,0.37,0.73,0.62
2.174,-1.38,-0.47,1.92,0.43,0.68,0.67
2.176,-1.38,-0.47,1.92,0.49,0.61,0.7
2.179,-1.38,-0.47,1.92,0.54,0.53,0.73
2.18,-1.05,0.16,1.95,0.54,0.53,0.73
2.181,-1.05,0.16,1.95,0.57,0.48,0.74
2.188,-1.05,0.16,1.95,0.62,0.39,0.75
2.188,-1.05,0.16,1.95,0.67,0.29,0.77
2.188,-1.05,0.16,1.95,0.7,0.24,0.77
2.204,-1.05,0.16,1.95,0.75,0.15,0.78
2.205,-1.05,0.16,1.95,0.95,-0.26,0.84
2.205,-1.05,0.16,1.95,0.95,-0.26,0.84
2.205,-1.05,0.16,1.95,0.98,-0.3,0.84
2.206,-1.05,0.16,1.95,1,-0.33,0.85
2.206,-1.05,0.16,1.95,1,-0.33,0.85
2.206,-1.05,0.16,1.95,1,-0.33,0.85
2.206,-1.05,0.16,1.95,1.02,-0.36,0.86
2.207,-1.81,1.15,1.61,1.02,-0.36,0.86
2.207,-1.9,0.97,1.69,1.02,-0.36,0.86
2.207,-1.9,0.97,1.69,1.07,-0.41,0.87
2.207,-1.9,0.97,1.69,1.11,-0.45,0.89
2.21,-1.9,0.97,1.69,1.14,-0.45,0.89
2.21,-1.64,1.36,1.75,1.14,-0.45,0.89
2.21,-1.64,1.36,1.75,1.18,-0.47,0.9
2.212,-1.64,1.36,1.75,1.23,-0.47,0.91
2.216,-1.64,1.36,1.75,1.27,-0.46,0.92
2.217,-1.64,1.36,1.75,1.29,-0.46,0.93
2.219,-1.64,1.36,1.75,1.33,-0.44,0.94
2.219,-1.23,1.26,1.43,1.33,-0.44,0.94
2.22,-1.23,1.26,1.43,1.37,-0.41,0.95
2.222,-1.23,1.26,1.43,1.41,-0.38,0.96
2.224,-1.23,1.26,1.43,1.42,-0.35,0.97
2.226,-1.23,1.26,1.43,1.45,-0.31,0.99
2.243,-1.23,1.26,1.43,1.48,-0.26,0.99
2.244,-1.23,1.26,1.43,1.53,-0.05,1.06
2.244,-1.23,1.26,1.43,1.53,-0.05,1.06
2.245,-1.23,1.26,1.43,1.53,-0.05,1.06
2.245,-1.23,1.26,1.43,1.54,-0.03,1.07
2.245,-1.23,1.26,1.43,1.54,0,1.08
2.245,-1.23,1.26,1.43,1.54,0,1.08
2.245,-1.23,1.26,1.43,1.55,0.09,1.1
2.246,-1,0.96,0.25,1.55,0.09,1.1
2.246,-1.13,0.68,0.4,1.55,0.09,1.1
2.246,-1.19,0.54,0.48,1.55,0.09,1.1
2.246,-1.19,0.54,0.48,1.56,0.26,1.14
2.247,-1.19,0.54,0.48,1.56,0.33,1.15
2.25,-1.19,0.54,0.48,1.56,0.46,1.19
2.25,-1.69,1.07,-0.17,1.56,0.46,1.19
2.251,-1.69,1.07,-0.17,1.56,0.56,1.23
2.252,-1.69,1.07,-0.17,1.55,0.61,1.24
2.254,-1.69,1.07,-0.17,1.54,0.7,1.28
2.257,-1.69,1.07,-0.17,1.51,0.79,1.3
2.26,-1.69,1.07,-0.17,1.48,0.9,1.31
2.261,-1.39,0.84,-0.43,1.48,0.9,1.31
2.262,-1.39,0.84,-0.43,1.46,0.96,1.31
2.263,-1.39,0.84,-0.43,1.42,1.04,1.33
2.264,-1.39,0.84,-0.43,1.38,1.1,1.34
2.266,-1.39,0.84,-0.43,1.34,1.15,1.35
2.286,-1.39,0.84,-0.43,1.33,1.17,1.36
2.286,-1.39,0.84,-0.43,1.22,1.23,1.47
2.287,-1.39,0.84,-0.43,1.22,1.23,1.47
2.287,-1.39,0.84,-0.43,1.22,1.23,1.47
2.287,-1.39,0.84,-0.43,1.21,1.22,1.48
2.287,-1.39,0.84,-0.43,1.2,1.21,1.5
2.29,-1.39,0.84,-0.43,1.2,1.21,1.5
2.29,-1.39,0.84,-0.43,1.2,1.2,1.51
2.29,-1.39,0.84,-0.43,1.18,1.16,1.54
2.291,-1.28,0.93,-0.22,1.18,1.16,1.54
2.291,-1.27,0.81,-0.13,1.18,1.16,1.54
2.291,-1.26,0.69,-0.04,1.18,1.16,1.54
2.291,-1.26,0.69,-0.04,1.16,1.11,1.57
2.291,-1.26,0.69,-0.04,1.15,1.05,1.6
2.292,-0.91,1.07,0.17,1.15,1.05,1.6
2.292,-0.91,1.07,0.17,1.14,1.02,1.61
2.292,-0.91,1.07,0.17,1.13,0.94,1.64
2.294,-0.91,1.07,0.17,1.12,0.86,1.66
2.3,-0.91,1.07,0.17,1.13,0.81,1.67
2.3,-0.91,1.07,0.17,1.12,0.73,1.69
2.301,-0.67,1.64,0.59,1.12,0.73,1.69
2.301,-0.67,1.64,0.59,1.12,0.63,1.71
2.302,-0.67,1.64,0.59,1.12,0.54,1.72
2.31,-0.67,1.64,0.59,1.12,0.49,1.73
2.311,-0.67,1.64,0.59,1.13,0.4,1.73
2.322,-0.67,1.64,0.59,1.13,0.3,1.73
2.323,-0.67,1.64,0.59,1.2,0.03,1.63
2.323,-0.67,1.64,0.59,1.2,0.01,1.61
2.323,-0.67,1.64,0.59,1.2,0.01,1.61
2.323,-0.67,1.64,0.59,1.2,0.01,1.61
2.325,-0.67,1.64,0.59,1.22,0,1.59
2.325,-0.67,1.64,0.59,1.22,0,1.59
2.325,-0.67,1.64,0.59,1.23,-0.02,1.57
2.325,0.31,1.09,0.56,1.23,-0.02,1.57
2.326,0.23,0.98,0.64,1.23,-0.02,1.57
2.326,0.13,0.87,0.71,1.23,-0.02,1.57
2.326,0.13,0.87,0.71,1.24,-0.06,1.52
2.326,0.13,0.87,0.71,1.26,-0.08,1.5
2.329,0.13,0.87,0.71,1.27,-0.13,1.45
2.33,0.23,0.59,0.91,1.27,-0.13,1.45
2.33,0.23,0.59,0.91,1.29,-0.19,1.39
2.334,0.23,0.59,0.91,1.32,-0.25,1.34
2.334,0.23,0.59,0.91,1.32,-0.28,1.31
2.336,0.23,0.59,0.91,1.33,-0.35,1.25
2.338,0.23,0.59,0.91,1.34,-0.42,1.19
2.339,1.09,0.67,0.65,1.34,-0.42,1.19
2.339,1.09,0.67,0.65,1.35,-0.46,1.15
2.341,1.09,0.67,0.65,1.35,-0.53,1.09
2.344,1.09,0.67,0.65,1.36,-0.59,1.02
2.346,1.09,0.67,0.65,1.37,-0.64,0.95
2.36,1.09,0.67,0.65,1.37,-0.66,0.92
2.361,1.09,0.67,0.65,1.41,-0.67,0.7
2.361,1.09,0.67,0.65,1.42,-0.66,0.67
2.362,1.09,0.67,0.65,1.42,-0.66,0.67
2.362,1.09,0.67,0.65,1.42,-0.66,0.67
2.362,1.09,0.67,0.65,1.42,-0.64,0.66
2.362,1.09,0.67,0.65,1.42,-0.61,0.64
2.363,0.66,1.59,0.31,1.42,-0.61,0.64
2.363,0.46,1.38,0.48,1.42,-0.61,0.64
2.363,0.46,1.38,0.48,1.43,-0.59,0.62
2.364,0.46,1.38,0.48,1.43,-0.53,0.59
2.366,0.46,1.38,0.48,1.44,-0.46,0.57
2.369,0.46,1.38,0.48,1.44,-0.4,0.55
2.37,0.46,1.38,0.48,1.44,-0.36,0.54
2.37,0.02,1.24,-0.03,1.44,-0.36,0.54
2.371,0.02,1.24,-0.03,1.44,-0.3,0.52
2.373,0.02,1.24,-0.03,1.43,-0.24,0.51
2.375,0.02,1.24,-0.03,1.43,-0.18,0.5
2.379,0.02,1.24,-0.03,1.42,-0.15,0.49
2.38,-0.2,0.79,-0.42,1.42,-0.15,0.49
2.38,-0.2,0.79,-0.42,1.41,-0.11,0.48
2.382,-0.2,0.79,-0.42,1.4,-0.07,0.47
2.384,-0.2,0.79,-0.42,1.4,-0.06,0.46
2.386,-0.2,0.79,-0.42,1.38,-0.05,0.44
2.404,-0.2,0.79,-0.42,1.37,-0.04,0.42
2.406,-0.2,0.79,-0.42,1.33,-0.03,0.28
2.406,-0.2,0.79,-0.42,1.33,-0.03,0.28
2.406,-0.2,0.79,-0.42,1.33,-0.03,0.28
2.407,-0.2,0.79,-0.42,1.33,-0.02,0.26
2.407,-0.2,0.79,-0.42,1.32,-0.01,0.24
2.408,-0.2,0.79,-0.42,1.32,-0.01,0.24
2.408,0.28,0.17,-0.52,1.32,-0.01,0.24
2.409,0.23,-0.01,-0.33,1.32,-0.01,0.24
2.409,0.23,-0.01,-0.33,1.32,0,0.21
2.409,0.23,-0.01,-0.33,1.32,0,0.19
2.41,0.23,-0.01,-0.33,1.32,0,0.18
2.41,0.23,-0.01,-0.33,1.33,-0.02,0.16
2.41,-0.09,-0.24,-0.35,1.33,-0.02,0.16
2.41,-0.09,-0.24,-0.35,1.34,-0.03,0.15
2.418,-0.09,-0.24,-0.35,1.35,-0.05,0.14
2.419,-0.09,-0.24,-0.35,1.35,-0.06,0.14
2.419,-0.09,-0.24,-0.35,1.36,-0.08,0.14
2.42,-0.1,-0.33,-0.26,1.36,-0.08,0.14
2.421,-0.1,-0.33,-0.26,1.37,-0.09,0.14
2.421,-0.1,-0.33,-0.26,1.37,-0.11,0.15
2.422,-0.1,-0.33,-0.26,1.37,-0.11,0.16
2.423,-0.1,-0.33,-0.26,1.36,-0.13,0.17
2.425,-0.1,-0.33,-0.26,1.35,-0.14,0.17
2.442,-0.1,-0.33,-0.26,1.35,-0.14,0.17
2.443,-0.1,-0.33,-0.26,1.28,-0.17,0.17
2.443,-0.1,-0.33,-0.26,1.28,-0.18,0.17
2.443,-0.1,-0.33,-0.26,1.27,-0.18,0.17
2.443,-0.1,-0.33,-0.26,1.27,-0.18,0.17
2.444,-0.1,-0.33,-0.26,1.27,-0.18,0.17
2.444,-0.1,-0.33,-0.26,1.27,-0.18,0.17
2.444,-0.1,-0.33,-0.26,1.27,-0.19,0.17
2.448,-0.49,-0.08,-1.22,1.27,-0.19,0.17
2.448,-0.51,-0.16,-1.12,1.27,-0.19,0.17
2.448,-0.53,-0.24,-1.03,1.27,-0.19,0.17
2.456,-0.53,-0.24,-1.03,1.27,-0.2,0.17
2.457,-0.53,-0.24,-1.03,1.26,-0.2,0.16
2.457,-0.53,-0.24,-1.03,1.26,-0.21,0.16
2.457,-0.53,-0.24,-1.03,1.26,-0.21,0.15
2.457,-0.53,-0.24,-1.03,1.19,-0.21,0.13
2.458,-0.53,-0.24,-1.03,1.11,-0.2,0.1
2.458,-0.53,-0.24,-1.03,1.01,-0.2,0.07
2.458,-0.47,-0.25,-1.22,1.01,-0.2,0.07
2.46,-0.47,-0.25,-1.22,0.96,-0.2,0.06
2.461,-0.47,-0.25,-1.22,0.85,-0.19,0.04
2.461,-0.2,-1.59,-3.06,0.85,-0.19,0.04
2.467,-0.2,-1.59,-3.06,0.76,-0.17,0.03
2.467,-0.2,-1.59,-3.06,0.72,-0.12,0.03
2.468,-0.2,-1.59,-3.06,0.73,-0.08,0.02
2.481,-0.2,-1.59,-3.06,0.73,0,0.02
2.482,-0.2,-1.59,-3.06,0.86,0.25,0.15
2.482,-0.2,-1.59,-3.06,0.86,0.25,0.15
2.482,-0.2,-1.59,-3.06,0.86,0.25,0.15
2.483,-0.2,-1.59,-3.06,0.86,0.25,0.15
2.483,-0.2,-1.59,-3.06,0.87,0.27,0.17
2.483,-0.2,-1.59,-3.06,0.88,0.28,0.2
2.483,-1.19,-0.82,-1.49,0.88,0.28,0.2
2.483,-1.18,-0.91,-1.36,0.88,0.28,0.2
2.483,-1.18,-0.91,-1.36,0.89,0.29,0.26
2.484,-1.18,-0.91,-1.36,0.9,0.3,0.31
2.486,-1.18,-0.91,-1.36,0.9,0.3,0.35
2.491,-1.18,-0.91,-1.36,0.9,0.3,0.37
2.492,-1.18,-0.91,-1.36,0.9,0.3,0.39
2.492,-1.16,-0.3,-1.47,0.9,0.3,0.39
2.492,-1.16,-0.3,-1.47,0.9,0.3,0.41
2.494,-1.16,-0.3,-1.47,0.9,0.3,0.42
2.497,-1.16,-0.3,-1.47,0.89,0.31,0.43
2.5,-1.16,-0.3,-1.47,0.88,0.31,0.43
2.5,-0.85,-0.29,-1.78,0.88,0.31,0.43
2.5,-0.85,-0.29,-1.78,0.86,0.31,0.42
2.502,-0.85,-0.29,-1.78,0.86,0.31,0.42
2.504,-0.85,-0.29,-1.78,0.86,0.32,0.42
2.506,-0.85,-0.29,-1.78,0.85,0.32,0.42
2.521,-0.85,-0.29,-1.78,0.83,0.33,0.41
2.522,-0.85,-0.29,-1.78,0.79,0.3,0.36
2.522,-0.85,-0.29,-1.78,0.79,0.3,0.36
2.522,-0.85,-0.29,-1.78,0.79,0.3,0.36
2.522,-0.85,-0.29,-1.78,0.79,0.29,0.36
2.522,-0.85,-0.29,-1.78,0.78,0.28,0.35
2.522,-0.85,-0.29,-1.78,0.78,0.28,0.35
2.522,-0.25,-0.44,-1.77,0.78,0.28,0.35
2.522,-0.27,-0.49,-1.71,0.78,0.28,0.35
2.522,-0.28,-0.53,-1.64,0.78,0.28,0.35
2.523,-0.28,-0.53,-1.64,0.77,0.25,0.34
2.523,-0.28,-0.53,-1.64,0.76,0.24,0.33
2.525,-0.28,-0.53,-1.64,0.74,0.21,0.31
2.529,-0.28,-0.53,-1.64,0.72,0.18,0.29
2.529,-0.05,-0.26,-1.97,0.72,0.18,0.29
2.53,-0.05,-0.26,-1.97,0.69,0.16,0.27
2.532,-0.05,-0.26,-1.97,0.68,0.14,0.26
2.533,-0.05,-0.26,-1.97,0.66,0.11,0.24
2.535,-0.05,-0.26,-1.97,0.64,0.09,0.21
2.539,-0.05,-0.26,-1.97,0.62,0.07,0.2
2.539,0.07,0.02,-2.14,0.62,0.07,0.2
2.54,0.07,0.02,-2.14,0.6,0.04,0.17
2.541,0.07,0.02,-2.14,0.57,0.02,0.15
2.543,0.07,0.02,-2.14,0.54,-0.01,0.12
2.549,0.07,0.02,-2.14,0.52,-0.03,0.11
2.561,0.07,0.02,-2.14,0.49,-0.07,0.07
2.562,0.07,0.02,-2.14,0.32,-0.23,-0.06
