time,ax,ay,az,wx,wy,wz
0.002,-0.01,-0.01,0.39,0.01,0.03,0
0.013,-0.01,-0.01,0.39,0.02,0.03,0
0.014,-0.01,-0.01,0.39,0.01,0.04,0
0.014,-0.01,-0.01,0.39,0.02,0.04,0
0.014,-0.01,-0.01,0.39,0.02,0.03,0
0.014,-0.01,-0.01,0.39,0.02,0.03,0
0.015,-0.01,-0.01,0.39,0.02,0.03,0
0.015,-0.01,-0.01,0.39,0.02,0.03,0
0.015,-0.01,-0.01,0.39,0.02,0.03,0
0.015,-0.01,0.02,0.25,0.02,0.03,0
0.015,-0.01,0.02,0.25,0.02,0.03,0
0.015,0,0.02,0.25,0.02,0.03,0
0.016,0,0.02,0.25,0.02,0.03,0
0.019,0,0.02,0.25,0.01,0.03,0
0.021,0,0.02,0.25,0.01,0.03,0
0.021,-0.01,0.01,0.18,0.01,0.03,0
0.021,-0.01,0.01,0.18,0.01,0.02,0
0.023,-0.01,0.01,0.18,0.01,0.02,0
0.025,-0.01,0.01,0.18,0.01,0.01,0
0.027,-0.01,0.01,0.18,0,0.01,0
0.031,-0.01,0.01,0.18,0,0,0
0.031,0,-0.01,0.12,0,0,0
0.031,0,-0.01,0.12,0,0,0
0.033,0,-0.01,0.12,0,0,0
0.035,0,-0.01,0.12,-0.01,-0.01,0
0.037,0,-0.01,0.12,-0.01,-0.01,0
0.052,0,-0.01,0.12,-0.01,-0.02,0
0.052,0,-0.01,0.12,-0.01,-0.02,0
0.053,0,-0.01,0.12,-0.01,-0.02,0
0.053,0,-0.01,0.12,-0.01,-0.02,0
0.053,0,-0.01,0.12,-0.01,-0.02,0
0.053,0,-0.01,0.12,-0.01,-0.02,0
0.053,0,-0.01,0.12,-0.01,-0.02,0
0.053,0.01,-0.01,0.17,-0.01,-0.02,0
0.054,0,-0.01,0.17,-0.01,-0.02,0
0.054,0,-0.01,0.17,-0.01,-0.02,0
0.055,0,-0.01,0.17,-0.01,-0.02,0
0.058,0,-0.01,0.17,-0.01,-0.02,0
0.061,0,-0.01,0.17,-0.01,-0.02,0
0.061,0,-0.01,0.17,-0.01,-0.02,0
0.061,0,-0.02,0.2,-0.01,-0.02,0
0.063,0,-0.02,0.2,-0.01,-0.01,0
0.066,0,-0.02,0.2,0,-0.01,0
0.068,0,-0.02,0.2,0,-0.01,0
0.071,0,-0.02,0.2,0,0,0
0.071,0,-0.01,0.22,0,0,0
0.071,0,-0.01,0.22,0,0,0
0.073,0,-0.01,0.22,0,0.01,0
0.075,0,-0.01,0.22,0,0.01,0
0.077,0,-0.01,0.22,0,0.01,0
0.093,0,-0.01,0.22,0,0.01,0
0.094,0,-0.01,0.22,0.01,0.02,0
0.094,0,-0.01,0.22,0.01,0.02,0
0.094,0,-0.01,0.22,0.01,0.02,0
0.094,0,-0.01,0.22,0.01,0.01,0
0.095,0,-0.01,0.22,0.01,0.02,0
0.095,0,-0.01,0.22,0.01,0.02,0
0.095,-0.03,0.01,0.24,0.01,0.02,0
0.095,-0.03,0.01,0.24,0.01,0.02,0
0.095,-0.03,0.01,0.24,0.01,0.02,0
0.095,-0.03,0.01,0.24,0.01,0.02,0
0.096,-0.03,0.01,0.24,0,0.01,0
0.103,-0.03,0.01,0.24,0,0.01,0
0.103,-0.03,0.01,0.24,0.01,0.01,0
0.104,-0.03,0,0.25,0.01,0.01,0
0.104,-0.03,0,0.25,0.01,0.01,0
0.104,-0.03,0,0.25,0.01,0.01,0
0.105,-0.03,0,0.25,0,0.01,0
0.107,-0.03,0,0.25,0,0,0
0.11,-0.03,0,0.25,0,0,0
0.11,-0.04,-0.02,0.24,0,0,0
0.112,-0.04,-0.02,0.24,0,0,0
0.116,-0.04,-0.02,0.24,0,0,0
0.118,-0.04,-0.02,0.24,0,0,0
0.118,-0.04,-0.02,0.24,0,0,0
0.133,-0.04,-0.02,0.24,-0.01,-0.01,0
0.134,-0.04,-0.02,0.24,-0.01,-0.01,0
0.134,-0.04,-0.02,0.24,-0.01,-0.01,0
0.134,-0.04,-0.02,0.24,0,-0.01,0
0.134,-0.04,-0.02,0.24,0,-0.01,0
0.134,-0.04,-0.02,0.24,0,-0.01,0
0.135,-0.04,-0.02,0.24,0,-0.01,0
0.135,-0.03,-0.02,0.22,0,-0.01,0
0.135,-0.03,-0.02,0.22,0,-0.01,0
0.135,-0.03,-0.01,0.22,0,-0.01,0
0.135,-0.03,-0.01,0.22,0,-0.01,0
0.135,-0.03,-0.01,0.22,0,-0.01,0
0.137,-0.03,-0.01,0.22,0,-0.01,0
0.141,-0.03,-0.01,0.22,0,-0.01,0
0.141,0.01,-0.01,0.21,0,-0.01,0
0.141,0.01,-0.01,0.21,0,-0.01,0
0.143,0.01,-0.01,0.21,0,0,0
0.146,0.01,-0.01,0.21,0,-0.01,0
0.147,0.01,-0.01,0.21,0,0,0
0.15,0.01,-0.01,0.21,0,0,0
0.151,0.02,-0.01,0.23,0,0,0
0.151,0.02,-0.01,0.23,0,0,0
0.154,0.02,-0.01,0.23,0,0,0
0.156,0.02,-0.01,0.23,0,0,0
0.157,0.02,-0.01,0.23,0,0,0
0.173,0.02,-0.01,0.23,0,0.01,0
0.173,0.02,-0.01,0.23,0,0.01,0
0.174,0.02,-0.01,0.23,0,0.01,0
0.174,0.02,-0.01,0.23,0,0.01,0
0.174,0.02,-0.01,0.23,0,0.01,0
0.174,0.02,-0.01,0.23,0,0.01,0
0.174,0.02,-0.01,0.23,0,0.01,0
0.175,-0.01,0.01,0.17,0,0.01,0
0.175,-0.01,0.01,0.17,0,0.01,0
0.175,-0.01,0.01,0.17,0,0.01,0
0.176,-0.01,0.01,0.17,0,0.01,0
0.177,-0.01,0.01,0.17,0,0.01,0
0.187,-0.01,0.01,0.17,0,0.01,0
0.187,0,0.01,0.15,0,0.01,0
0.188,0,0.01,0.15,0.01,0.01,0
0.188,0,0.01,0.15,0,0,0
0.188,0,0.01,0.15,0.01,0,0
0.188,0,0.01,0.15,0,0,0
0.191,0,0.01,0.15,0,0,0
0.191,-0.03,-0.01,0.18,0,0,0
0.191,-0.03,-0.01,0.18,0,0,0
0.193,-0.03,-0.01,0.18,0,0,0
0.196,-0.03,-0.01,0.18,0,0,0
0.201,-0.03,-0.01,0.18,0,0,0
0.213,-0.03,-0.01,0.18,0,0,0
0.214,-0.03,-0.01,0.18,0,0,0
0.214,-0.03,-0.01,0.18,0,0,0
0.214,-0.03,-0.01,0.18,0,0,0
0.214,-0.03,-0.01,0.18,0,-0.01,0
0.214,-0.03,-0.01,0.18,0,-0.01,0
0.214,-0.03,-0.01,0.18,0,-0.01,0
0.215,-0.02,-0.02,0.23,0,-0.01,0
0.215,-0.02,-0.02,0.23,0,-0.01,0
0.215,-0.02,-0.02,0.23,0,-0.01,0
0.215,-0.02,-0.02,0.23,0,-0.01,0
0.218,-0.02,-0.02,0.23,0,-0.01,0
0.221,-0.02,-0.02,0.23,0,-0.01,0
0.221,-0.02,-0.02,0.23,0,-0.01,0
0.222,0.02,0.01,0.21,0,-0.01,0
0.223,0.02,0.01,0.21,0,0,0
0.226,0.02,0.01,0.21,0,0,0
0.227,0.02,0.01,0.21,0,0,0
0.23,0.02,0.01,0.21,0,0,0
0.231,-0.01,-0.01,0.23,0,0,0
0.231,-0.01,-0.01,0.23,0,0,0
0.234,-0.01,-0.01,0.23,0,0,0
0.236,-0.01,-0.01,0.23,0,0,0
0.237,-0.01,-0.01,0.23,0,0,0
0.253,-0.01,-0.01,0.23,0,0,0
0.254,-0.01,-0.01,0.23,0,0,0
0.254,-0.01,-0.01,0.23,0,0,0
0.254,-0.01,-0.01,0.23,0,0,0
0.254,-0.01,-0.01,0.23,0,0,0
0.254,-0.01,-0.01,0.23,0,0,0
0.255,-0.01,-0.01,0.23,0,0,0
0.255,-0.02,0.01,0.22,0,0,0
0.255,-0.02,0.01,0.22,0,0,0
0.255,-0.02,0.01,0.22,0,0,0
0.255,-0.02,0.01,0.22,0,0.01,0
0.256,-0.02,0.01,0.22,0,0,0
0.257,-0.02,0.01,0.22,0,0,0
0.261,-0.02,0.01,0.22,0,0.01,0
0.261,-0.01,0,0.23,0,0.01,0
0.261,-0.01,0,0.23,0,0.01,0
0.264,-0.01,0,0.23,0,0,0
0.265,-0.01,0,0.23,0,0,0
0.267,-0.01,0,0.23,0,0,0
0.271,-0.01,0,0.23,0,0,0
0.271,-0.03,0,0.24,0,0,0
0.272,-0.03,0,0.24,0,0,0
0.274,-0.03,0,0.24,0,0,0
0.275,-0.03,0,0.24,0,0,0
0.277,-0.03,0,0.24,0,0,0
0.294,-0.03,0,0.24,0,0,0
0.295,-0.03,0,0.24,-0.01,0,0
0.295,-0.03,0,0.24,-0.01,0,0
0.295,-0.03,0,0.24,-0.01,0,0
0.295,-0.03,0,0.24,-0.01,0,0
0.295,-0.03,0,0.24,0,0,0
0.296,-0.03,0,0.24,0,0,0
0.296,-0.03,0,0.24,0,0,0
0.296,-0.03,-0.01,0.19,0,0,0
0.296,-0.03,-0.01,0.19,0,0,0
0.296,-0.03,-0.01,0.19,0,0,0
0.301,-0.03,-0.01,0.19,0,0,0
0.301,-0.03,-0.01,0.19,0,0,0
0.302,-0.03,-0.01,0.19,0,0,0
0.302,-0.01,-0.02,0.21,0,0,0
0.303,-0.01,-0.02,0.21,0,0,0
0.305,-0.01,-0.02,0.21,0,0,0
0.307,-0.01,-0.02,0.21,0,0,0
0.31,-0.01,-0.02,0.21,0,0,0
0.31,0.01,-0.01,0.19,0,0,0
0.311,0.01,-0.01,0.19,0,0,0
0.313,0.01,-0.01,0.19,0,0,0
0.315,0.01,-0.01,0.19,0,0,0
0.318,0.01,-0.01,0.19,0,0,0
0.335,0.01,-0.01,0.19,0,0,0
0.335,0.01,-0.01,0.19,0,0,0
0.335,0.01,-0.01,0.19,0,0,0
0.336,0.01,-0.01,0.19,0,0,0
0.336,0.01,-0.01,0.19,0,0,0
0.336,0.01,-0.01,0.19,0,0,0
0.336,0.01,-0.01,0.19,0.01,0,0
0.336,0.01,-0.01,0.19,0,0,0
0.337,-0.01,0.01,0.22,0,0,0
0.337,-0.01,0.01,0.22,0,0,0
0.337,-0.01,0.01,0.22,0,0,0
0.338,-0.01,0.01,0.22,0,0,0
0.342,-0.01,0.01,0.22,0,0,0
0.342,-0.01,0.01,0.22,0,0,0
0.342,0.01,-0.01,0.21,0,0,0
0.343,0.01,-0.01,0.21,0,0,0
0.346,0.01,-0.01,0.21,0,0,0
0.347,0.01,-0.01,0.21,0,0,0
0.351,0.01,-0.01,0.21,0,0,0
0.351,0.01,-0.01,0.21,0,0,0
0.352,0.01,0.01,0.23,0,0,0
0.353,0.01,0.01,0.23,0,0,0
0.355,0.01,0.01,0.23,0,0,0
0.357,0.01,0.01,0.23,0,0,0
0.374,0.01,0.01,0.23,0,0,0
0.374,0.01,0.01,0.23,0,0,0
0.375,0.01,0.01,0.23,0,0,0
0.378,0.01,0.01,0.23,0,0,0
0.378,0.01,0.01,0.23,0,0,0
0.378,0.01,0.01,0.23,0,0,0
0.378,0.01,0.01,0.23,0,0,0
0.378,0.01,0.01,0.23,0,0,0
0.379,-0.02,-0.02,0.2,0,0,0
0.379,-0.02,-0.02,0.2,0,0,0
0.379,-0.02,-0.02,0.2,0,0,0
0.379,-0.02,-0.02,0.2,0,0,0
0.379,-0.02,-0.02,0.2,0,0,0
0.387,-0.02,-0.02,0.2,0,0,0
0.388,-0.02,-0.02,0.2,0,0,0
0.388,0.01,0,0.21,0,0,0
0.388,0.01,0,0.21,0,0,0
0.388,0.01,0,0.21,0,0,0
0.389,0.01,0,0.21,0,0,0
0.391,0.01,0,0.21,0,0,0
0.391,-0.02,-0.02,0.21,0,0,0
0.391,-0.02,-0.02,0.21,0,0,0
0.393,-0.02,-0.02,0.21,0,0,0
0.396,-0.02,-0.02,0.21,0,0,0
0.4,-0.02,-0.02,0.21,0,0,0
0.413,-0.02,-0.02,0.21,0,0,0
0.413,-0.02,-0.02,0.21,0,0,0
0.414,-0.02,-0.02,0.21,0,0,0
0.414,-0.02,-0.02,0.21,0,0,0
0.414,-0.02,-0.02,0.21,0,0,0
0.414,-0.02,-0.02,0.21,0,0,0
0.414,-0.02,-0.02,0.21,0,0,0
0.414,-0.01,-0.01,0.22,0,0,0
0.415,-0.01,-0.01,0.22,0,0,0
0.415,-0.01,-0.01,0.22,0,0,0
0.415,-0.01,-0.01,0.22,0,0,0
0.417,-0.01,-0.01,0.22,0,0,0
0.421,-0.01,-0.01,0.22,0,0,0
0.421,-0.02,0,0.19,0,0,0
0.421,-0.02,0,0.19,0,0,0
0.423,-0.02,0,0.19,0,0,0
0.425,-0.02,0,0.19,0,0,0
0.427,-0.02,0,0.19,0,0,0
0.43,-0.02,0,0.19,0,0,0
0.431,-0.02,0.01,0.18,0,0,0
0.431,-0.02,0.01,0.18,0,0,0
0.434,-0.02,0.01,0.18,0,0,0
0.436,-0.02,0.01,0.18,0,0,0
0.438,-0.02,0.01,0.18,0,0,0
0.452,-0.02,0.01,0.18,0,0,0
0.453,-0.02,0.01,0.18,0,0,0
0.453,-0.02,0.01,0.18,0,0,0
0.453,-0.02,0.01,0.18,0,0,0
0.453,-0.02,0.01,0.18,0,0,0
0.454,-0.02,0.01,0.18,0,0,0
0.454,-0.02,0.01,0.18,0,0,0
0.454,0,0,0.22,0,0,0
0.454,0,0,0.22,0,0,0
0.454,0,0,0.22,0,0,0
0.455,0,0,0.22,0,0,0
0.458,0,0,0.22,0,0,0
0.461,0,0,0.22,0,0,0
0.461,0.04,0.01,0.21,0,0,0
0.462,0.04,0.01,0.21,0,0,0
0.463,0.04,0.01,0.21,0,0,0
0.465,0.04,0.01,0.21,0,0,0
0.467,0.04,0.01,0.21,0,0,0
0.47,0.04,0.01,0.21,0,0,0
0.471,0.01,0,0.22,0,0,0
0.471,0.01,0,0.22,0,0,0
0.473,0.01,0,0.22,0,0,0
0.475,0.01,0,0.22,0,0,0
0.477,0.01,0,0.22,0,0,0
0.493,0.01,0,0.22,0,0,0
0.493,0.01,0,0.22,0,0,0
0.493,0.01,0,0.22,0,0,0
0.494,0.01,0,0.22,0,0,0
0.494,0.01,0,0.22,0,0,0
0.494,0.01,0,0.22,0,0,0
0.494,0.01,0,0.22,0,0,0
0.494,0.02,-0.01,0.22,0,0,0
0.495,0.02,-0.02,0.22,0,0,0
0.495,0.02,-0.02,0.22,0,0,0
0.495,0.02,-0.02,0.22,0,0.01,0
0.499,0.02,-0.02,0.22,0,0,0
0.501,0.02,-0.02,0.22,0,0,0
0.501,-0.02,0,0.19,0,0,0
0.501,-0.02,0,0.19,0,0.01,0
0.504,-0.02,0,0.19,0,0,0
0.506,-0.02,0,0.19,0,0,0
0.508,-0.02,0,0.19,0,0,0
0.51,-0.02,0,0.19,0,0,0
0.511,-0.01,-0.01,0.19,0,0,0
0.511,-0.01,-0.01,0.19,0,0,0
0.513,-0.01,-0.01,0.19,0,0,0
0.515,-0.01,-0.01,0.19,0,0,0
0.518,-0.01,-0.01,0.19,0,0.01,0
0.532,-0.01,-0.01,0.19,0,0,0
0.532,-0.01,-0.01,0.19,0,0,0
0.533,-0.01,-0.01,0.19,0,0,0
0.533,-0.01,-0.01,0.19,0,0,0
0.533,-0.01,-0.01,0.19,0,0,0
0.533,-0.01,-0.01,0.19,0,0,0
0.536,-0.01,-0.01,0.19,0,0,0
0.536,-0.02,-0.02,0.19,0,0,0
0.536,-0.02,-0.02,0.19,0,0,0
0.537,-0.02,-0.02,0.19,0,0,0
0.537,-0.02,-0.02,0.19,0,0,0
0.537,-0.02,-0.02,0.19,0,0,0
0.538,-0.02,-0.02,0.19,0,0,0
0.541,-0.02,-0.02,0.19,0,0,0
0.541,-0.01,-0.01,0.19,0,0,0
0.541,-0.01,-0.01,0.19,0,0,0
0.543,-0.01,-0.01,0.19,0,0,0
0.545,-0.01,-0.01,0.19,0,0,0
0.547,-0.01,-0.01,0.19,0,-0.01,0
0.551,-0.01,-0.01,0.19,0,0,0
0.551,-0.02,0,0.2,0,0,0
0.551,-0.02,0,0.2,0,0,0
0.553,-0.02,0,0.2,0,0,0
0.555,-0.02,0,0.2,0,0,0
0.557,-0.02,0,0.2,0,-0.01,0
0.572,-0.02,0,0.2,0,-0.01,0
0.573,-0.02,0,0.2,0,0,0
0.573,-0.02,0,0.2,0,0,0
0.573,-0.02,0,0.2,0,0,0
0.573,-0.02,0,0.2,0,0,0
0.574,-0.02,0,0.2,0,0,0
0.574,-0.02,0,0.2,0,0,0
0.574,-0.01,0,0.24,0,0,0
0.574,-0.01,0,0.24,0,0,0
0.574,-0.01,0,0.24,0,0,0
0.575,-0.01,0,0.24,0,0,0
0.577,-0.01,0,0.24,0,0,0
0.583,-0.01,0,0.24,0,0,0
0.583,-0.01,-0.01,0.27,0,0,0
0.584,-0.01,-0.01,0.27,0,0,0
0.584,-0.01,-0.01,0.27,0,0,0
0.586,-0.01,-0.01,0.27,0,0,0
0.588,-0.01,-0.01,0.27,0,0,0
0.591,-0.01,-0.01,0.27,0,0,0
0.592,0,-0.02,0.25,0,0,0
0.592,0,-0.02,0.25,0,0,0
0.594,0,-0.02,0.25,0,0,0
0.596,0,-0.02,0.25,0,0,0
0.597,0,-0.02,0.25,0,0,0
0.614,0,-0.02,0.25,0,0,0
0.614,0,-0.02,0.25,0,0,0
0.615,0,-0.02,0.25,0,0,0
0.615,0,-0.02,0.25,0,0.01,0
0.615,0,-0.02,0.25,0,0.01,0
0.615,0,-0.02,0.25,0,0.01,0
0.615,0,-0.02,0.25,0,0,0
0.616,0,0.01,0.22,0,0,0
0.616,0,0.01,0.22,0,0,0
0.616,0,0.01,0.22,0,0,0
0.616,0,0.01,0.22,0,0,0
0.617,0,0.01,0.22,0,0,0
0.618,0,0.01,0.22,0,0,0
0.621,0,0.01,0.22,0,0,0
0.622,0,0.01,0.22,0,0,0
0.623,0,0.01,0.22,0,0,0
0.624,0,0.01,0.22,0,0,0
0.625,0,0.01,0.22,0,0,0
0.627,0,0.01,0.22,0,0,0
0.63,0,0.01,0.22,0,0,0
0.631,0,-0.04,0.14,0,0,0
0.631,0,-0.04,0.14,0,0,0
0.635,0,-0.04,0.14,0,0,0
0.636,0,-0.04,0.14,0,0,0
0.637,0,-0.04,0.14,0,0,0
0.653,0,-0.04,0.14,0,0,0
0.654,0,-0.04,0.14,0,0,0
0.654,0,-0.04,0.14,0,0,0
0.654,0,-0.04,0.14,0,0,0
0.654,0,-0.04,0.14,0,0,0
0.655,0,-0.04,0.14,0,0,0
0.655,0,-0.04,0.14,0,0,0
0.655,0,-0.04,0.14,0,0,0
0.655,-0.01,-0.01,0.18,0,0,0
0.656,-0.01,-0.01,0.18,0,0,0
0.656,-0.01,-0.01,0.18,0,0,0
0.657,-0.01,-0.01,0.18,0,0,0
0.661,-0.01,-0.01,0.18,0,0,0
0.661,-0.01,-0.01,0.19,0,0,0
0.662,-0.01,-0.01,0.19,0,0,0
0.664,-0.01,-0.01,0.19,0,0,0
0.665,-0.01,-0.01,0.19,0,0,0
0.667,-0.01,-0.01,0.19,0,0,0
0.67,-0.01,-0.01,0.19,0,0,0
0.671,-0.02,-0.03,0.24,0,0,0
0.671,-0.02,-0.03,0.24,0,0,0
0.673,-0.02,-0.03,0.24,0,0,0
0.675,-0.02,-0.03,0.24,0,0,0
0.677,-0.02,-0.03,0.24,0,0,0
0.692,-0.02,-0.03,0.24,0,0,0
0.693,-0.02,-0.03,0.24,0,0,0
0.693,-0.02,-0.03,0.24,0,0,0
0.693,-0.02,-0.03,0.24,0,0,0
0.693,-0.02,-0.03,0.24,0,0,0
0.694,-0.02,-0.03,0.24,0,0,0
0.694,-0.02,-0.03,0.24,0,0,0
0.694,-0.01,0.01,0.25,0,0,0
0.698,-0.01,0.01,0.25,0,0,0
0.698,-0.01,0.01,0.25,0,0,0
0.699,-0.01,0.01,0.25,0,0,0
0.699,-0.01,0.01,0.25,0,0,0
0.704,-0.01,0.01,0.25,0,0,0
0.705,0.01,0,0.25,0,0,0
0.705,0.01,0,0.25,0,0,0
0.705,0.01,0,0.25,0,0,0
0.705,0.01,0,0.25,0,0,0
0.708,0.01,0,0.25,0,0,0
0.71,0.01,0,0.25,0,0,0
0.711,0,-0.02,0.21,0,0,0
0.711,0,-0.02,0.21,0,0,0
0.716,0,-0.02,0.21,0,0,0
0.717,0,-0.02,0.21,0,0,0
0.721,0,-0.02,0.21,0,0,0
0.734,0,-0.02,0.21,0,0,0
0.734,0,-0.02,0.21,0,0,0
0.734,0,-0.02,0.21,0,0,0
0.734,0,-0.02,0.21,0,0,0
0.734,0,-0.02,0.21,0,0,0
0.734,0,-0.02,0.21,0,0,0
0.735,0,-0.02,0.21,0,0,0
0.735,0,-0.02,0.21,0,0,0
0.735,0.01,-0.02,0.2,0,0,0
0.735,0.01,-0.02,0.2,0,0,0
0.735,0.01,-0.02,0.2,0,0,0
0.737,0.01,-0.02,0.2,0,0,0
0.741,0.01,-0.02,0.2,0,0,0
0.741,0.02,0.01,0.18,0,0,0
0.741,0.02,0.01,0.18,0,0,0
0.743,0.02,0.01,0.18,0,0,0
0.746,0.02,0.01,0.18,0,0,0
0.747,0.02,0.01,0.18,0,0,0
0.75,0.02,0.01,0.18,0,0,0
0.75,-0.01,0,0.18,0,0,0
0.751,-0.01,0,0.18,0,0,0
0.753,-0.01,0,0.18,0,0,0
0.755,-0.01,0,0.18,0,0,0
0.757,-0.01,0,0.18,0,0,0
0.773,-0.01,0,0.18,0,0,0
0.773,-0.01,0,0.18,0,0,0
0.773,-0.01,0,0.18,0,0,0
0.773,-0.01,0,0.18,0,0,0
0.774,-0.01,0,0.18,0,0,0
0.774,-0.01,0,0.18,0,0,0
0.774,-0.01,0,0.18,0,0,0
0.774,-0.01,-0.01,0.22,0,0,0
0.774,-0.01,-0.01,0.22,0,0,0
0.774,-0.01,-0.01,0.22,0,0,0
0.776,-0.01,-0.01,0.22,0,0,0
0.778,-0.01,-0.01,0.22,0,0,0
0.784,-0.01,-0.01,0.22,0,0,0
0.784,-0.03,0,0.23,0,0,0
0.784,-0.03,0,0.23,0,0,0
0.785,-0.03,0,0.23,0,0,0
0.791,-0.03,0,0.23,0,0,0
0.792,-0.03,0,0.23,0,0,0
0.792,-0.03,0,0.23,0,0,0
0.792,-0.01,0.01,0.21,0,0,0
0.792,-0.01,0.01,0.21,0,0,0
0.794,-0.01,0.01,0.21,0,0,0
0.796,-0.01,0.01,0.21,0,0,0
0.798,-0.01,0.01,0.21,0,0,0
0.814,-0.01,0.01,0.21,0,0,0
0.815,-0.01,0.01,0.21,0,0,0
0.815,-0.01,0.01,0.21,0,0,0
0.815,-0.01,0.01,0.21,0,0,0
0.815,-0.01,0.01,0.21,0,0,0
0.816,-0.01,0.01,0.21,0,0,0
0.816,-0.01,0.01,0.21,0,0,0
0.816,-0.01,0.01,0.21,0,0,0
0.816,-0.01,-0.03,0.22,0,0,0
0.816,-0.01,-0.03,0.22,0,0,0
0.816,-0.01,-0.03,0.22,0,0,0
0.817,-0.01,-0.03,0.22,0,0,0
0.819,-0.01,-0.03,0.22,0,0,0
0.821,-0.01,-0.03,0.22,0,0,0
0.821,0,-0.02,0.21,0,0,0
0.822,0,-0.02,0.21,0,0,0
0.824,0,-0.02,0.21,0,0,0
0.826,0,-0.02,0.21,0,0,0
0.827,0,-0.02,0.21,0,0,0
0.833,0,-0.02,0.21,0,0,0
0.834,0,-0.02,0.21,0,0,0
0.834,0,-0.02,0.21,0,0,0
0.834,-0.01,0,0.22,0,0,0
0.835,-0.01,0,0.22,0,0,0
0.837,-0.01,0,0.22,0,0,0
0.853,-0.01,0,0.22,0,0,0
0.854,-0.01,0,0.22,0,0,0
0.854,-0.01,0,0.22,0,0,0
0.854,-0.01,0,0.22,0,0,0
0.855,-0.01,0,0.22,0,0,0
0.855,-0.01,0,0.22,0,0,0
0.855,-0.01,0,0.22,0,0,0
0.855,0.02,-0.01,0.21,0,0,0
0.856,0.02,-0.01,0.21,0,0,0
0.856,0.02,-0.01,0.21,0,0,0
0.856,0.02,-0.01,0.21,0,0,0
0.861,0.02,-0.01,0.21,0,0,0
0.862,0.02,-0.01,0.21,0,0,0
0.862,0.01,-0.02,0.19,0,0,0
0.862,0.01,-0.02,0.19,0,0,0
0.864,0.01,-0.02,0.19,0,0,0
0.866,0.01,-0.02,0.19,0,0,0
0.867,0.01,-0.02,0.19,0,0,0
0.871,0.01,-0.02,0.19,0,0,0
0.871,0.03,0.02,0.21,0,0,0
0.872,0.03,0.02,0.21,0,0,0
0.873,0.03,0.02,0.21,0,0,0
0.875,0.03,0.02,0.21,0,0,0
0.878,0.03,0.02,0.21,0,0,0
0.893,0.03,0.02,0.21,0,0,0
0.894,0.03,0.02,0.21,0,0,0
0.894,0.03,0.02,0.21,0,0,0
0.894,0.03,0.02,0.21,0,0,0
0.895,0.03,0.02,0.21,0,0,0
0.895,0.03,0.02,0.21,0,0,0
0.895,0.03,0.02,0.21,0,0,0
0.895,-0.02,0.01,0.2,0,0,0
0.896,-0.02,0.02,0.2,0,0,0
0.896,-0.02,0.02,0.2,0,0,0
0.901,-0.02,0.02,0.2,0,0,0
0.902,-0.02,0.02,0.2,0,0,0
0.902,-0.02,0.02,0.2,0,0,0
0.903,-0.01,0,0.21,0,0,0
0.903,-0.01,0,0.21,0,0,0
0.903,-0.01,0,0.21,0,0,0
0.906,-0.01,0,0.21,0,0,0
0.908,-0.01,0,0.21,0,0,0
0.911,-0.01,0,0.21,0,0,0
0.911,-0.01,-0.02,0.21,0,0,0
0.912,-0.01,-0.02,0.21,0,0,0
0.916,-0.01,-0.02,0.21,0,0,0
0.917,-0.01,-0.02,0.21,0,0,0
0.917,-0.01,-0.02,0.21,0,0,0
0.934,-0.01,-0.02,0.21,0,0,0
0.936,-0.01,-0.02,0.21,0,0,0
0.936,-0.01,-0.02,0.21,0,0,0
0.936,-0.01,-0.02,0.21,0,0,0
0.937,-0.01,-0.02,0.21,0,0,0
0.937,-0.01,-0.02,0.21,0,0,0
0.938,-0.01,-0.02,0.21,0,0,0
0.938,0.01,-0.02,0.22,0,0,0
0.938,0.01,-0.02,0.22,0,0,0
0.938,0.01,-0.02,0.22,0,0,0
0.938,0.01,-0.02,0.22,0,0,0
0.939,0.01,-0.02,0.22,0,0,0
0.939,0.01,-0.02,0.22,0,0,0
0.94,0.01,-0.02,0.22,0,0,0
0.941,0,-0.02,0.21,0,0,0
0.941,0,-0.02,0.21,0,0,0
0.943,0,-0.02,0.21,0,0,0
0.945,0,-0.02,0.21,0,0,0
0.947,0,-0.02,0.21,0.01,0,0
0.951,0,-0.02,0.21,0,0,0
0.952,0.01,0,0.22,0,0,0
0.952,0.01,0,0.22,0,0,0
0.953,0.01,0,0.22,0,0.01,0
0.955,0.01,0,0.22,0,0.01,0
0.957,0.01,0,0.22,0,0.01,0
0.973,0.01,0,0.22,0,0.01,0
0.973,0.01,0,0.22,0,0,0
0.974,0.01,0,0.22,0,0.01,0
0.974,0.01,0,0.22,0,0,0
0.974,0.01,0,0.22,0,0,0
0.975,0.01,0,0.22,0,0,0
0.975,0.01,0,0.22,0,0,0
0.975,-0.01,0.02,0.18,0,0,0
0.975,-0.01,0.02,0.18,0,0,0
0.976,-0.01,0.02,0.18,0,0,0
0.976,-0.01,0.02,0.18,0,0,0
0.976,-0.01,0.02,0.18,0,0,0
0.978,-0.01,0.02,0.18,0,0,0
0.984,-0.01,0.02,0.18,0,0,0
0.985,-0.01,0.02,0.18,0,0.01,0
0.985,-0.03,0.01,0.2,0,0.01,0
0.986,-0.03,0.01,0.2,0,0,0
0.986,-0.03,0.01,0.2,0,0,0
0.989,-0.03,0.01,0.2,0,0,0
0.99,-0.03,0.01,0.2,0,0.01,0
0.991,-0.02,-0.01,0.22,0,0.01,0
0.991,-0.02,-0.01,0.22,0,0.01,0
0.993,-0.02,-0.01,0.22,0,0,0
0.996,-0.02,-0.01,0.22,0,0.01,0
0.998,-0.02,-0.01,0.22,0,0,0
1.015,-0.02,-0.01,0.22,0,0,0
1.015,-0.02,-0.01,0.22,0,0,0
1.016,-0.02,-0.01,0.22,0,0,0
1.016,-0.02,-0.01,0.22,0,0,0
1.016,-0.02,-0.01,0.22,0,0.01,0
1.016,-0.02,-0.01,0.22,0,0.01,0
1.016,-0.02,-0.01,0.22,0,0.01,0
1.016,-0.02,-0.01,0.22,0,0.01,0
1.017,-0.01,-0.02,0.19,0,0.01,0
1.017,-0.01,-0.02,0.19,0,0.01,0
1.017,-0.01,-0.02,0.19,0,0.01,0
1.019,-0.01,-0.02,0.19,0,0,0
1.021,-0.01,-0.02,0.19,0,0.01,0
1.024,0,-0.03,0.21,0,0.01,0
1.024,0,-0.03,0.21,0.01,0.01,0
1.024,0,-0.03,0.21,0,0.01,0
1.025,0,-0.03,0.21,0,0.01,0
1.027,0,-0.03,0.21,0,0.01,0
1.031,0,-0.03,0.21,0,0.01,0
1.032,0.01,-0.03,0.25,0,0.01,0
1.032,0.01,-0.03,0.25,0,0,0
1.035,0.01,-0.03,0.25,0,0,0
1.035,0.01,-0.03,0.25,0,0,0
1.038,0.01,-0.03,0.25,0,0,0
1.054,0.01,-0.03,0.25,0,0,0
1.054,0.01,-0.03,0.25,0,0,0
1.054,0.01,-0.03,0.25,0,0,0
1.055,0.01,-0.03,0.25,0,0,0
1.055,0.01,-0.03,0.25,0,0,0
1.055,0.01,-0.03,0.25,0,0,0
1.055,0.01,-0.03,0.25,0,0,0
1.055,0.01,-0.03,0.25,0,-0.01,0
1.056,-0.01,0,0.16,0,-0.01,0
1.056,-0.01,0,0.16,0,-0.01,0
1.056,-0.01,0,0.16,0,0,0
1.058,-0.01,0,0.16,0,0,0
1.061,-0.01,0,0.16,0,-0.01,0
1.061,-0.02,0.01,0.22,0,-0.01,0
1.062,-0.02,0.01,0.22,0,0,0
1.065,-0.02,0.01,0.22,0,-0.01,0
1.066,-0.02,0.01,0.22,0,-0.01,0
1.069,-0.02,0.01,0.22,0,-0.01,0
1.07,-0.02,0.01,0.22,0,-0.01,0
1.071,-0.03,0,0.24,0,-0.01,0
1.071,-0.03,0,0.24,0,-0.01,0
1.074,-0.03,0,0.24,0,-0.01,0
1.076,-0.03,0,0.24,0,-0.01,0
1.077,-0.03,0,0.24,-0.01,-0.02,0
1.093,-0.03,0,0.24,-0.01,-0.01,0
1.093,-0.03,0,0.24,-0.01,-0.02,0
1.094,-0.03,0,0.24,-0.01,-0.02,0
1.094,-0.03,0,0.24,-0.01,-0.02,0
1.094,-0.03,0,0.24,-0.01,-0.02,0
1.094,-0.03,0,0.24,-0.01,-0.02,0
1.095,-0.03,0,0.24,-0.01,-0.02,0
1.095,-0.02,-0.02,0.23,-0.01,-0.02,0
1.095,-0.02,-0.01,0.23,-0.01,-0.02,0
1.095,-0.02,-0.01,0.23,-0.01,-0.01,0
1.096,-0.02,-0.01,0.23,-0.01,-0.01,0
1.101,-0.02,-0.01,0.23,-0.01,-0.02,0
1.102,-0.02,-0.01,0.23,-0.01,-0.01,0
1.102,-0.02,-0.01,0.23,-0.01,-0.01,0
1.102,-0.02,0.01,0.21,-0.01,-0.01,0
1.103,-0.02,0.01,0.21,-0.01,-0.01,0
1.106,-0.02,0.01,0.21,-0.01,-0.01,0
1.108,-0.02,0.01,0.21,0,-0.01,0
1.11,-0.02,0.01,0.21,0,0,0
1.11,0.02,0,0.22,0,0,0
1.111,0.02,0,0.22,0,0,0
1.115,0.02,0,0.22,0,0,0
1.115,0.02,0,0.22,0,0.01,0
1.117,0.02,0,0.22,0,0,0
1.132,0.02,0,0.22,0,0.01,0
1.132,0.02,0,0.22,0.01,0.02,0
1.133,0.02,0,0.22,0.01,0.02,0
1.133,0.02,0,0.22,0.01,0.02,0
1.133,0.02,0,0.22,0.01,0.02,0
1.133,0.02,0,0.22,0.01,0.02,0
1.134,0.02,0,0.22,0.01,0.02,0
1.134,0.03,-0.04,0.16,0.01,0.02,0
1.134,0.03,-0.04,0.16,0.01,0.02,0
1.134,0.03,-0.04,0.16,0.01,0.01,0
1.135,0.03,-0.04,0.16,0.01,0.02,0
1.138,0.03,-0.04,0.16,0.01,0.02,0
1.141,0.03,-0.04,0.16,0.01,0.01,0
1.141,0.03,-0.01,0.19,0.01,0.01,0
1.142,0.03,-0.01,0.19,0.01,0.01,0
1.143,0.03,-0.01,0.19,0.01,0.01,0
1.146,0.03,-0.01,0.19,0,0.01,0
1.148,0.03,-0.01,0.19,0.01,0.01,0
1.151,0.03,-0.01,0.19,0.01,0.01,0
1.151,0,0.02,0.2,0.01,0.01,0
1.152,0,0.02,0.2,0,0,0
1.154,0,0.02,0.2,0,0,0
1.155,0,0.02,0.2,0,0,0
1.157,0,0.02,0.2,0,0,0
1.173,0,0.02,0.2,0,0,0
1.173,0,0.02,0.2,-0.01,-0.01,0
1.173,0,0.02,0.2,-0.01,-0.01,0
1.174,0,0.02,0.2,-0.01,-0.01,0
1.174,0,0.02,0.2,-0.01,-0.01,0
1.174,0,0.02,0.2,0,-0.01,0
1.174,0,0.02,0.2,0,-0.01,0
1.175,-0.03,0,0.18,0,-0.01,0
1.175,-0.03,0.01,0.18,0,-0.01,0
1.175,-0.03,0.01,0.18,0,-0.01,0
1.175,-0.03,0.01,0.18,0,-0.01,0
1.176,-0.03,0.01,0.18,0,-0.01,0
1.178,-0.03,0.01,0.18,0,-0.01,0
1.188,-0.03,0.01,0.18,0,-0.01,0
1.189,-0.04,0,0.2,0,-0.01,0
1.189,-0.04,0,0.2,0,0,0
1.189,-0.04,0,0.2,0,0,0
1.193,-0.04,0,0.2,0,0,0
1.193,-0.04,0,0.2,0,0,0
1.193,-0.04,0,0.2,0,0,0
1.193,-0.02,-0.02,0.23,0,0,0
1.194,-0.02,-0.02,0.23,0,0,0
1.195,-0.02,-0.02,0.23,0,0,0
1.196,-0.02,-0.02,0.23,0,0,0
1.206,-0.02,-0.02,0.23,0,0,0
1.212,-0.02,-0.02,0.23,0,0.01,0
1.213,-0.02,-0.02,0.23,0,0,0
1.213,-0.02,-0.02,0.23,0,0,0
1.213,-0.02,-0.02,0.23,0,0.01,0
1.214,-0.02,-0.02,0.23,0,0,0
1.214,-0.02,-0.02,0.23,0,0,0
1.214,-0.02,-0.02,0.23,0,0,0
1.214,0,-0.03,0.16,0,0,0
1.214,0.01,-0.03,0.16,0,0,0
1.214,0.01,-0.03,0.16,0,0,0
1.217,0.01,-0.03,0.16,0,0,0
1.219,0.01,-0.03,0.16,0,0,0
1.221,0.01,-0.03,0.16,0,0,0
1.221,0.01,-0.03,0.16,0,0,0
1.221,-0.01,-0.01,0.2,0,0,0
1.223,-0.01,-0.01,0.2,0,0,0
1.225,-0.01,-0.01,0.2,0,0,0
1.227,-0.01,-0.01,0.2,0,0,0
1.232,-0.01,-0.01,0.2,0,0,0
1.233,-0.01,-0.01,0.2,0,-0.01,0
1.233,0,0.04,0.19,0,-0.01,0
1.233,0,0.04,0.19,0,-0.01,0
1.235,0,0.04,0.19,0,-0.01,0
1.237,0,0.04,0.19,0,0,0
1.253,0,0.04,0.19,0,0,0
1.254,0,0.04,0.19,0,0,0
1.254,0,0.04,0.19,0,0,0
1.255,0,0.04,0.19,0,0,0
1.255,0,0.04,0.19,0,0,0
1.255,0,0.04,0.19,0,0,0
1.256,0,0.04,0.19,0,0,0
1.256,0,0.04,0.19,0,0,0
1.256,0,0.02,0.21,0,0,0
1.256,0,0.02,0.21,0,0,0
1.257,0,0.02,0.21,0,0,0
1.257,0,0.02,0.21,0,0,0
1.261,0,0.02,0.21,0,0,0
1.261,-0.01,0,0.22,0,0,0
1.261,-0.01,0,0.22,0,0,0
1.263,-0.01,0,0.22,0,0,0
1.265,-0.01,0,0.22,0,0,0
1.267,-0.01,0,0.22,0,0,0
1.27,-0.01,0,0.22,0,0,0
1.27,0,-0.04,0.23,0,0,0
1.271,0,-0.04,0.23,0,0,0
1.273,0,-0.04,0.23,0,0,0
1.275,0,-0.04,0.23,0.01,0,0
1.277,0,-0.04,0.23,0,0,0
1.293,0,-0.04,0.23,0,0.01,0
1.293,0,-0.04,0.23,0.01,0.01,0
1.293,0,-0.04,0.23,0.01,0.01,0
1.294,0,-0.04,0.23,0.01,0.01,0
1.294,0,-0.04,0.23,0.01,0.01,0
1.294,0,-0.04,0.23,0,0.01,0
1.295,0,-0.04,0.23,0.01,0.01,0
1.295,0,-0.02,0.19,0.01,0.01,0
1.295,0,-0.02,0.19,0.01,0.01,0
1.296,0.01,-0.02,0.19,0.01,0.01,0
1.296,0.01,-0.02,0.19,0.01,0.01,0
1.296,0.01,-0.02,0.19,0.01,0.01,0
1.305,0.01,-0.02,0.19,0,0.01,0
1.306,0.01,-0.02,0.19,0.01,0.01,0
1.306,0,-0.02,0.16,0.01,0.01,0
1.307,0,-0.02,0.16,0,0,0
1.307,0,-0.02,0.16,0,-0.01,0
1.307,0,-0.02,0.16,-0.01,-0.02,0
1.308,0,-0.02,0.16,-0.01,-0.03,0
1.313,0,-0.02,0.16,-0.02,-0.04,0
1.313,-0.03,-0.03,0.1,-0.02,-0.04,0
1.313,-0.03,-0.03,0.1,-0.02,-0.05,0
1.317,-0.03,-0.03,0.1,-0.03,-0.06,0
1.317,-0.03,-0.03,0.1,-0.03,-0.06,0
1.318,-0.03,-0.03,0.1,-0.03,-0.08,0
1.333,-0.03,-0.03,0.1,-0.04,-0.08,0
1.334,-0.03,-0.03,0.1,-0.05,-0.1,0
1.334,-0.03,-0.03,0.1,-0.05,-0.11,0
1.334,-0.03,-0.03,0.1,-0.05,-0.11,0
1.334,-0.03,-0.03,0.1,-0.05,-0.11,0
1.334,-0.03,-0.03,0.1,-0.05,-0.11,0
1.335,-0.03,-0.03,0.1,-0.05,-0.11,0
1.335,0.01,0.02,0.13,-0.05,-0.11,0
1.335,-0.01,0.03,0.13,-0.05,-0.11,0
1.335,-0.01,0.03,0.13,-0.05,-0.12,0
1.336,-0.01,0.03,0.13,-0.06,-0.12,0
1.338,-0.01,0.03,0.13,-0.06,-0.12,0
1.341,-0.01,0.03,0.13,-0.06,-0.12,0
1.342,-0.05,0.01,0.23,-0.06,-0.12,0
1.342,-0.05,0.01,0.23,-0.06,-0.12,0
1.344,-0.05,0.01,0.23,-0.06,-0.12,0
1.345,-0.05,0.01,0.23,-0.03,-0.05,0
1.348,-0.05,0.01,0.23,0.03,-0.01,0
1.351,-0.05,0.01,0.23,0.01,0.02,0
1.355,0.08,0.01,-0.31,0.01,0.02,0
1.355,0.08,0.01,-0.31,-0.01,0.01,0
1.355,0.08,0.01,-0.31,-0.01,-0.02,0
1.356,0.08,0.01,-0.31,0,-0.04,0
1.358,0.08,0.01,-0.31,-0.01,-0.02,0
1.372,0.08,0.01,-0.31,-0.01,-0.01,0
1.372,0.08,0.01,-0.31,0,-0.01,0
1.372,0.08,0.01,-0.31,0,-0.01,0
1.373,0.08,0.01,-0.31,0,-0.01,0
1.373,0.08,0.01,-0.31,0,-0.01,0
1.373,0.08,0.01,-0.31,0,-0.01,0
1.373,0.08,0.01,-0.31,0,-0.01,0
1.373,0.04,-0.01,0.27,0,-0.01,0
1.374,0.03,-0.01,0.27,0,-0.01,0
1.374,0.03,-0.01,0.27,0,-0.01,0
1.376,0.03,-0.01,0.27,-0.01,-0.01,0
1.378,0.03,-0.01,0.27,0,-0.01,0
1.386,0.03,-0.01,0.27,0,0,-0.01
1.39,0.08,-0.05,0.21,0,0,-0.01
1.39,0.08,-0.05,0.21,0,0,-0.01
1.39,0.08,-0.05,0.21,0,-0.02,0
1.392,0.08,-0.05,0.21,-0.01,-0.02,0
1.392,0.08,-0.05,0.21,-0.01,-0.02,0
1.393,0.08,-0.05,0.21,0,-0.01,-0.01
1.393,0.06,-0.03,0.18,0,-0.01,-0.01
1.393,0.06,-0.03,0.18,0,-0.01,-0.01
1.394,0.06,-0.03,0.18,-0.01,-0.02,-0.01
1.396,0.06,-0.03,0.18,-0.01,-0.02,-0.02
1.401,0.06,-0.03,0.18,-0.01,-0.03,-0.02
1.412,0.06,-0.03,0.18,-0.01,-0.02,-0.09
1.412,0.06,-0.03,0.18,-0.03,-0.03,-0.49
1.412,0.06,-0.03,0.18,-0.03,-0.03,-0.49
1.413,0.06,-0.03,0.18,-0.03,-0.03,-0.49
1.413,0.06,-0.03,0.18,-0.03,-0.03,-0.49
1.413,0.06,-0.03,0.18,-0.04,-0.03,-0.54
1.413,0.06,-0.03,0.18,-0.04,-0.03,-0.59
1.413,1.26,-2.2,0.13,-0.04,-0.03,-0.59
1.414,1.26,-2.2,0.13,-0.04,-0.03,-0.59
1.414,1.26,-2.2,0.13,-0.04,-0.02,-0.68
1.416,1.26,-2.2,0.13,-0.06,-0.03,-0.76
1.419,1.26,-2.2,0.13,-0.07,-0.04,-0.79
1.421,1.26,-2.2,0.13,-0.1,-0.04,-0.84
1.421,0.69,-2.07,-0.47,-0.1,-0.04,-0.84
1.422,0.69,-2.07,-0.47,-0.15,-0.02,-0.85
1.424,0.69,-2.07,-0.47,-0.2,-0.01,-0.82
1.426,0.69,-2.07,-0.47,-0.22,-0.02,-0.81
1.427,0.69,-2.07,-0.47,-0.23,0.01,-0.76
1.43,0.69,-2.07,-0.47,-0.19,0.04,-0.65
1.431,-1.54,-1,1.32,-0.19,0.04,-0.65
1.431,-1.54,-1,1.32,-0.18,0.03,-0.6
1.433,-1.54,-1,1.32,-0.17,0.03,-0.49
1.436,-1.54,-1,1.32,-0.16,0.05,-0.36
1.438,-1.54,-1,1.32,-0.14,0.06,-0.24
1.453,-1.54,-1,1.32,-0.13,0.06,-0.18
1.454,-1.54,-1,1.32,-0.08,-0.2,0.2
1.454,-1.54,-1,1.32,-0.1,-0.24,0.22
1.454,-1.54,-1,1.32,-0.11,-0.26,0.24
1.455,-1.54,-1,1.32,-0.11,-0.26,0.24
1.455,-1.54,-1,1.32,-0.11,-0.26,0.24
1.455,-1.54,-1,1.32,-0.11,-0.26,0.24
1.455,-0.14,2.92,1.32,-0.11,-0.26,0.24
1.456,-0.13,2.94,1.32,-0.11,-0.26,0.24
1.456,-0.15,2.94,1.32,-0.11,-0.26,0.24
1.456,-0.15,2.94,1.32,-0.14,-0.27,0.25
1.456,-0.15,2.94,1.32,-0.2,-0.27,0.27
1.458,-0.15,2.94,1.32,-0.26,-0.22,0.28
1.461,-0.15,2.94,1.32,-0.34,-0.15,0.3
1.462,0.2,1.56,-0.34,-0.34,-0.15,0.3
1.462,0.2,1.56,-0.34,-0.37,-0.12,0.31
1.468,0.2,1.56,-0.34,-0.43,-0.05,0.33
1.468,0.2,1.56,-0.34,-0.46,0,0.35
1.468,0.2,1.56,-0.34,-0.48,0.04,0.38
1.47,0.2,1.56,-0.34,-0.48,0.05,0.39
1.471,0.01,-0.62,-0.03,-0.48,0.05,0.39
1.471,0.01,-0.62,-0.03,-0.46,0.05,0.43
1.474,0.01,-0.62,-0.03,-0.44,0.02,0.45
1.476,0.01,-0.62,-0.03,-0.41,0.01,0.46
1.478,0.01,-0.62,-0.03,-0.37,-0.03,0.47
1.495,0.01,-0.62,-0.03,-0.33,-0.08,0.47
1.496,0.01,-0.62,-0.03,-0.14,-0.66,0.39
1.496,0.01,-0.62,-0.03,-0.14,-0.66,0.39
1.496,0.01,-0.62,-0.03,-0.14,-0.66,0.39
1.497,0.01,-0.62,-0.03,-0.12,-0.75,0.38
1.497,0.01,-0.62,-0.03,-0.11,-0.83,0.37
1.497,0.01,-0.62,-0.03,-0.11,-0.83,0.37
1.497,0.01,-0.62,-0.03,-0.09,-0.98,0.35
1.498,-0.78,0.01,2.93,-0.09,-0.98,0.35
1.498,-0.85,0.06,2.94,-0.09,-0.98,0.35
1.498,-0.92,0.08,2.94,-0.09,-0.98,0.35
1.498,-0.92,0.08,2.94,-0.09,-1.13,0.34
1.499,-0.92,0.08,2.94,-0.08,-1.2,0.34
1.504,-0.92,0.08,2.94,-0.09,-1.34,0.35
1.505,-0.66,1.2,2.74,-0.09,-1.34,0.35
1.505,-0.66,1.2,2.74,-0.09,-1.5,0.36
1.506,-0.66,1.2,2.74,-0.09,-1.68,0.38
1.506,-0.66,1.2,2.74,-0.09,-1.77,0.4
1.507,-0.66,1.2,2.74,-0.08,-1.97,0.43
1.51,-0.66,1.2,2.74,-0.07,-2.16,0.49
1.51,-0.3,1.41,3.4,-0.07,-2.16,0.49
1.511,-0.3,1.41,3.4,-0.06,-2.36,0.55
1.514,-0.3,1.41,3.4,-0.05,-2.46,0.59
1.523,-0.3,1.41,3.4,-0.04,-2.7,0.66
1.524,-0.3,1.41,3.4,-0.02,-2.94,0.72
1.534,-0.3,1.41,3.4,-0.01,-3.07,0.76
1.534,-0.3,1.41,3.4,-0.04,-3.53,1.11
1.535,-0.3,1.41,3.4,-0.04,-3.53,1.11
1.535,-0.3,1.41,3.4,-0.04,-3.53,1.11
1.535,-0.3,1.41,3.4,-0.04,-3.53,1.11
1.535,-0.3,1.41,3.4,-0.05,-3.48,1.13
1.535,-0.3,1.41,3.4,-0.07,-3.43,1.15
1.535,1.4,1.67,-1.18,-0.07,-3.43,1.15
1.535,0.76,1.69,-1.1,-0.07,-3.43,1.15
1.536,0.76,1.69,-1.1,-0.11,-3.32,1.16
1.536,0.76,1.69,-1.1,-0.13,-3.27,1.16
1.538,0.76,1.69,-1.1,-0.15,-3.19,1.14
1.541,0.76,1.69,-1.1,-0.15,-3.16,1.18
1.541,-0.09,2.25,-0.27,-0.15,-3.16,1.18
1.542,-0.09,2.25,-0.27,-0.15,-3.16,1.2
1.544,-0.09,2.25,-0.27,-0.13,-3.17,1.24
1.546,-0.09,2.25,-0.27,-0.12,-3.18,1.26
1.548,-0.09,2.25,-0.27,-0.11,-3.19,1.26
1.551,-0.09,2.25,-0.27,-0.11,-3.19,1.26
1.551,1.28,1.93,-0.04,-0.11,-3.19,1.26
1.552,1.28,1.93,-0.04,-0.1,-3.19,1.26
1.554,1.28,1.93,-0.04,-0.08,-3.21,1.29
1.556,1.28,1.93,-0.04,-0.05,-3.25,1.35
1.558,1.28,1.93,-0.04,-0.04,-3.28,1.38
1.573,1.28,1.93,-0.04,-0.02,-3.35,1.49
1.573,1.28,1.93,-0.04,0.14,-3.42,2.57
1.573,1.28,1.93,-0.04,0.14,-3.42,2.57
1.573,1.28,1.93,-0.04,0.18,-3.37,2.71
1.573,1.28,1.93,-0.04,0.18,-3.37,2.71
1.574,1.28,1.93,-0.04,0.2,-3.33,2.84
1.574,1.28,1.93,-0.04,0.2,-3.33,2.84
1.574,3.51,3.13,-1.52,0.2,-3.33,2.84
1.574,3.2,3.17,-1.43,0.2,-3.33,2.84
1.574,2.89,3.23,-1.34,0.2,-3.33,2.84
1.574,2.89,3.23,-1.34,0.22,-3.31,2.95
1.576,2.89,3.23,-1.34,0.26,-3.3,3.09
1.578,2.89,3.23,-1.34,0.27,-3.48,3.03
1.585,2.89,3.23,-1.34,0.28,-3.68,2.89
1.585,-0.77,-2.76,6.67,0.28,-3.68,2.89
1.585,-0.77,-2.76,6.67,0.3,-4.12,2.35
1.586,-0.77,-2.76,6.67,0.25,-4.17,1.34
1.586,-0.77,-2.76,6.67,0.2,-4.03,0.79
1.588,-0.77,-2.76,6.67,0.04,-3.6,-0.04
1.591,-0.77,-2.76,6.67,-0.18,-3.03,-0.57
1.591,2.06,-5.05,-9.85,-0.18,-3.03,-0.57
1.592,2.06,-5.05,-9.85,-0.41,-2.4,-0.97
1.593,2.06,-5.05,-9.85,-0.51,-2.08,-1.12
1.595,2.06,-5.05,-9.85,-0.68,-1.52,-1.3
1.597,2.06,-5.05,-9.85,-0.81,-1.08,-1.37
1.611,2.06,-5.05,-9.85,-0.79,-0.48,-1.32
1.612,2.06,-5.05,-9.85,-0.54,0.45,-0.34
1.612,2.06,-5.05,-9.85,-0.54,0.45,-0.34
1.612,2.06,-5.05,-9.85,-0.54,0.45,-0.34
1.612,2.06,-5.05,-9.85,-0.54,0.45,-0.34
1.613,2.06,-5.05,-9.85,-0.54,0.45,-0.34
1.613,-10.23,2.36,2.05,-0.54,0.45,-0.34
1.613,-10.28,2.38,2.07,-0.54,0.45,-0.34
1.614,-10.28,2.38,2.07,-0.46,0.56,0
1.615,-10.28,2.38,2.07,-0.4,0.61,0.34
1.617,-10.28,2.38,2.07,-0.37,0.63,0.48
1.619,-10.28,2.38,2.07,-0.35,0.62,0.71
1.621,-10.28,2.38,2.07,-0.36,0.56,0.87
1.622,-4.95,4.19,3.52,-0.36,0.56,0.87
1.622,-4.95,4.19,3.52,-0.39,0.49,0.98
1.623,-4.95,4.19,3.52,-0.42,0.45,1.02
1.625,-4.95,4.19,3.52,-0.47,0.4,1.1
1.627,-4.95,4.19,3.52,-0.54,0.35,1.17
1.631,-4.95,4.19,3.52,-0.58,0.33,1.2
1.631,-2.84,3.93,2.75,-0.58,0.33,1.2
1.636,-2.84,3.93,2.75,-0.66,0.3,1.27
1.636,-2.84,3.93,2.75,-0.76,0.24,1.33
1.637,-2.84,3.93,2.75,-0.84,0.2,1.37
1.639,-2.84,3.93,2.75,-0.89,0.19,1.39
1.66,-2.84,3.93,2.75,-1.01,0.14,1.42
1.661,-2.84,3.93,2.75,-1.22,0.21,1.28
1.661,-2.84,3.93,2.75,-1.17,0.26,1.22
1.661,-2.84,3.93,2.75,-1.17,0.26,1.22
1.661,-2.84,3.93,2.75,-1.1,0.29,1.15
1.662,-2.84,3.93,2.75,-1.01,0.32,1.07
1.662,-2.84,3.93,2.75,-1.01,0.32,1.07
1.662,-2.84,3.93,2.75,-0.89,0.36,0.98
1.662,3.86,-1.32,7.75,-0.89,0.36,0.98
1.662,3.92,-1.03,7.75,-0.89,0.36,0.98
1.662,3.92,-1.03,7.75,-0.58,0.44,0.78
1.662,3.92,-1.03,7.75,-0.19,0.49,0.58
1.662,3.92,-1.03,7.75,0.02,0.51,0.48
1.663,4.84,-0.02,19.76,0.02,0.51,0.48
1.663,4.84,-0.02,19.76,0.51,0.55,0.29
1.663,4.84,-0.02,19.76,1.02,0.6,0.12
1.667,4.84,-0.02,19.76,1.58,0.65,0
1.669,4.84,-0.02,19.76,1.86,0.66,-0.05
1.671,4.84,-0.02,19.76,2.39,0.74,-0.12
1.671,-1.63,-0.35,27.58,2.39,0.74,-0.12
1.671,-1.63,-0.35,27.58,2.79,0.15,-0.06
1.674,-1.63,-0.35,27.58,3.04,-0.14,0.04
1.675,-1.63,-0.35,27.58,3.5,-0.3,0.23
1.677,-1.63,-0.35,27.58,4.21,-0.42,0.38
1.693,-1.63,-0.35,27.58,4.98,-0.26,0.44
1.693,-1.63,-0.35,27.58,6.96,0.75,-0.06
1.693,-1.63,-0.35,27.58,7.04,0.88,-0.2
1.693,-1.63,-0.35,27.58,7.08,1,-0.34
1.694,-1.63,-0.35,27.58,7.08,1,-0.34
1.694,-1.63,-0.35,27.58,7.08,1,-0.34
1.694,-1.63,-0.35,27.58,7.08,1,-0.34
1.694,9.45,-6.69,18.07,7.08,1,-0.34
1.694,9.43,-7.13,18.04,7.08,1,-0.34
1.694,9.5,-7.78,18,7.08,1,-0.34
1.694,9.5,-7.78,18,7.2,1.28,-0.65
1.696,9.5,-7.78,18,7.17,1.44,-0.81
1.709,9.5,-7.78,18,7.19,1.76,-1.12
1.71,9.5,-7.78,18,7.11,2.12,-1.43
1.71,9.5,-7.78,18,6.95,2.49,-1.75
1.711,9.5,-7.78,18,6.91,2.69,-1.91
1.711,9.5,-7.78,18,6.71,3,-2.22
1.711,12.11,-9.53,6.85,6.71,3,-2.22
1.711,12.11,-9.53,6.85,6.54,3.31,-2.54
1.711,12.11,-9.53,6.85,6.31,3.7,-2.81
1.712,11.08,-8.04,1.12,6.31,3.7,-2.81
1.712,11.08,-8.04,1.12,6.18,3.92,-2.95
1.713,11.08,-8.04,1.12,5.92,4.38,-3.2
1.716,11.08,-8.04,1.12,5.64,4.79,-3.42
1.718,11.08,-8.04,1.12,5.53,4.97,-3.52
1.733,11.08,-8.04,1.12,5.29,5.27,-3.68
1.733,11.08,-8.04,1.12,4.85,6.07,-3.94
1.733,11.08,-8.04,1.12,4.85,6.07,-3.94
1.734,11.08,-8.04,1.12,4.85,6.07,-3.94
1.734,11.08,-8.04,1.12,4.82,6.14,-3.92
1.734,11.08,-8.04,1.12,4.82,6.14,-3.92
1.734,2.69,-5.58,0.97,4.82,6.14,-3.92
1.734,3.26,-6.15,0.97,4.82,6.14,-3.92
1.735,3.26,-6.15,0.97,4.84,6.27,-3.84
1.735,3.26,-6.15,0.97,4.84,6.31,-3.79
1.735,3.26,-6.15,0.97,4.89,6.34,-3.69
1.738,3.26,-6.15,0.97,4.94,6.3,-3.59
1.741,3.26,-6.15,0.97,4.97,6.24,-3.54
1.741,-0.7,-6.68,1.59,4.97,6.24,-3.54
1.742,-0.7,-6.68,1.59,5.03,6.12,-3.44
1.748,-0.7,-6.68,1.59,5.09,6.01,-3.35
1.748,-0.7,-6.68,1.59,5.15,5.87,-3.24
1.749,-0.7,-6.68,1.59,5.17,5.79,-3.18
1.751,-0.7,-6.68,1.59,5.2,5.6,-3.07
1.752,-1.74,-4.82,-0.39,5.2,5.6,-3.07
1.758,-1.74,-4.82,-0.39,5.21,5.43,-2.95
1.758,-1.74,-4.82,-0.39,5.21,5.26,-2.85
1.758,-1.74,-4.82,-0.39,5.21,5.17,-2.8
1.758,-1.74,-4.82,-0.39,5.18,5.01,-2.72
1.773,-1.74,-4.82,-0.39,5.17,4.86,-2.64
1.773,-1.74,-4.82,-0.39,5.15,4.01,-2.45
1.773,-1.74,-4.82,-0.39,5.15,4.01,-2.45
1.773,-1.74,-4.82,-0.39,5.15,4.01,-2.45
1.773,-1.74,-4.82,-0.39,5.15,4.01,-2.45
1.773,-1.74,-4.82,-0.39,5.17,3.93,-2.44
1.774,-1.74,-4.82,-0.39,5.17,3.93,-2.44
1.774,1.04,-3.25,0.49,5.17,3.93,-2.44
1.774,1.04,-3.25,0.49,5.2,3.85,-2.43
1.775,1.04,-3.25,0.49,5.29,3.74,-2.42
1.777,1.04,-3.25,0.49,5.33,3.69,-2.42
1.78,1.04,-3.25,0.49,5.44,3.59,-2.44
1.781,3.1,-3.72,2.48,5.44,3.59,-2.44
1.783,3.1,-3.72,2.48,5.56,3.44,-2.45
1.783,3.1,-3.72,2.48,5.62,3.35,-2.44
1.785,3.1,-3.72,2.48,5.73,3.16,-2.44
1.788,3.1,-3.72,2.48,5.83,2.97,-2.47
1.791,3.1,-3.72,2.48,5.91,2.77,-2.51
1.791,4.6,-5.1,1.27,5.91,2.77,-2.51
1.791,4.6,-5.1,1.27,5.94,2.66,-2.54
1.793,4.6,-5.1,1.27,6,2.43,-2.6
1.795,4.6,-5.1,1.27,6.04,2.21,-2.68
1.797,4.6,-5.1,1.27,6.09,2,-2.77
1.814,4.6,-5.1,1.27,6.11,1.9,-2.81
1.814,4.6,-5.1,1.27,6.08,0.92,-3.11
1.814,4.6,-5.1,1.27,6.07,0.79,-3.14
1.814,4.6,-5.1,1.27,6.04,0.65,-3.17
1.815,4.6,-5.1,1.27,6.04,0.65,-3.17
1.815,4.6,-5.1,1.27,6.04,0.65,-3.17
1.815,4.6,-5.1,1.27,6.04,0.65,-3.17
1.815,4.6,-5.1,1.27,6.01,0.51,-3.2
1.815,6.1,-7.87,-5.02,6.01,0.51,-3.2
1.816,6.41,-8.31,-4.64,6.01,0.51,-3.2
1.816,6.67,-8.71,-4.25,6.01,0.51,-3.2
1.816,6.67,-8.71,-4.25,5.95,0.22,-3.28
1.818,6.67,-8.71,-4.25,5.88,-0.07,-3.38
1.821,6.67,-8.71,-4.25,5.79,-0.35,-3.49
1.822,6.58,-9.71,-7.07,5.79,-0.35,-3.49
1.822,6.58,-9.71,-7.07,5.73,-0.5,-3.54
1.824,6.58,-9.71,-7.07,5.6,-0.8,-3.68
1.826,6.58,-9.71,-7.07,5.45,-1.12,-3.82
1.828,6.58,-9.71,-7.07,5.38,-1.28,-3.89
1.831,6.58,-9.71,-7.07,5.22,-1.63,-4.03
1.831,4.98,-10.76,-8.8,5.22,-1.63,-4.03
1.832,4.98,-10.76,-8.8,5.05,-1.97,-4.16
1.836,4.98,-10.76,-8.8,4.85,-2.27,-4.28
1.836,4.98,-10.76,-8.8,4.7,-2.37,-4.34
1.837,4.98,-10.76,-8.8,4.39,-2.5,-4.47
1.852,4.98,-10.76,-8.8,4.12,-2.58,-4.56
1.853,4.98,-10.76,-8.8,3.24,-2.31,-4.75
1.853,4.98,-10.76,-8.8,3.24,-2.31,-4.75
1.856,4.98,-10.76,-8.8,3.24,-2.31,-4.75
1.857,4.98,-10.76,-8.8,3.24,-2.31,-4.75
1.857,4.98,-10.76,-8.8,3.12,-2.17,-4.8
1.857,4.98,-10.76,-8.8,3,-2.01,-4.84
1.857,4.98,-10.76,-8.8,2.76,-1.65,-4.94
1.858,1.06,-5.09,-10.4,2.76,-1.65,-4.94
1.858,1.41,-5.33,-10,2.76,-1.65,-4.94
1.858,1.41,-5.33,-10,2.51,-1.24,-5.05
1.858,1.41,-5.33,-10,2.38,-1.02,-5.11
1.862,1.41,-5.33,-10,2.11,-0.56,-5.24
1.862,1.41,-5.33,-10,1.82,-0.09,-5.38
1.862,1.86,-5.21,-11.21,1.82,-0.09,-5.38
1.863,1.86,-5.21,-11.21,1.51,0.39,-5.55
1.865,1.86,-5.21,-11.21,1.36,0.63,-5.64
1.868,1.86,-5.21,-11.21,1.06,1.07,-5.79
1.871,1.86,-5.21,-11.21,0.78,1.45,-5.92
1.871,2.07,-5.8,-11,0.78,1.45,-5.92
1.871,2.07,-5.8,-11,0.53,1.77,-5.97
1.873,2.07,-5.8,-11,0.4,1.91,-6.06
1.875,2.07,-5.8,-11,0.15,2.15,-6.13
1.877,2.07,-5.8,-11,-0.09,2.33,-6.16
1.892,2.07,-5.8,-11,-0.19,2.41,-6.17
1.893,2.07,-5.8,-11,-0.99,2.71,-5.9
1.893,2.07,-5.8,-11,-0.99,2.71,-5.9
1.893,2.07,-5.8,-11,-0.99,2.71,-5.9
1.894,2.07,-5.8,-11,-1.07,2.72,-5.85
1.894,2.07,-5.8,-11,-1.14,2.72,-5.79
1.894,2.07,-5.8,-11,-1.14,2.72,-5.79
1.895,-3.39,-4.98,-7.32,-1.14,2.72,-5.79
1.895,-2.28,-4.41,-7.19,-1.14,2.72,-5.79
1.895,-2.28,-4.41,-7.19,-1.28,2.72,-5.67
1.896,-2.28,-4.41,-7.19,-1.35,2.71,-5.6
1.898,-2.28,-4.41,-7.19,-1.48,2.69,-5.44
1.903,-2.28,-4.41,-7.19,-1.61,2.66,-5.27
1.904,-5.82,-3.2,-6.32,-1.61,2.66,-5.27
1.904,-5.82,-3.2,-6.32,-1.67,2.65,-5.17
1.908,-5.82,-3.2,-6.32,-1.79,2.64,-4.98
1.909,-5.82,-3.2,-6.32,-1.91,2.63,-4.77
1.909,-5.82,-3.2,-6.32,-2.02,2.63,-4.56
1.915,-5.82,-3.2,-6.32,-2.07,2.63,-4.45
1.915,-5.82,-3.2,-6.32,-2.18,2.63,-4.22
1.915,-5.82,-3.2,-6.32,-2.28,2.64,-3.99
1.916,-7.57,-1.76,-6.39,-2.28,2.64,-3.99
1.916,-7.57,-1.76,-6.39,-2.33,2.64,-3.87
1.917,-7.57,-1.76,-6.39,-2.44,2.62,-3.64
1.934,-7.57,-1.76,-6.39,-2.54,2.59,-3.41
1.934,-7.57,-1.76,-6.39,-2.95,2.36,-2.75
1.935,-7.57,-1.76,-6.39,-2.95,2.32,-2.7
1.935,-7.57,-1.76,-6.39,-2.98,2.26,-2.65
1.935,-7.57,-1.76,-6.39,-2.98,2.26,-2.65
1.935,-7.57,-1.76,-6.39,-3.01,2.2,-2.61
1.935,-7.57,-1.76,-6.39,-3.01,2.2,-2.61
1.936,-7.57,-1.76,-6.39,-3.04,2.13,-2.58
1.937,-3.61,-3.66,-5.29,-3.04,2.13,-2.58
1.938,-3.27,-3.32,-5.28,-3.04,2.13,-2.58
1.938,-3,-2.99,-5.29,-3.04,2.13,-2.58
1.938,-3,-2.99,-5.29,-3.1,1.98,-2.52
1.939,-3,-2.99,-5.29,-3.15,1.81,-2.48
1.94,-3,-2.99,-5.29,-3.18,1.72,-2.47
1.941,-0.41,-4.08,-4.38,-3.18,1.72,-2.47
1.941,-0.41,-4.08,-4.38,-3.25,1.53,-2.44
1.943,-0.41,-4.08,-4.38,-3.31,1.32,-2.43
1.945,-0.41,-4.08,-4.38,-3.34,1.21,-2.42
1.947,-0.41,-4.08,-4.38,-3.4,0.99,-2.42
1.951,-0.41,-4.08,-4.38,-3.46,0.76,-2.41
1.951,0.2,-3.69,-3.86,-3.46,0.76,-2.41
1.952,0.2,-3.69,-3.86,-3.52,0.51,-2.4
1.953,0.2,-3.69,-3.86,-3.55,0.38,-2.39
1.956,0.2,-3.69,-3.86,-3.6,0.14,-2.37
1.958,0.2,-3.69,-3.86,-3.65,-0.11,-2.36
1.974,0.2,-3.69,-3.86,-3.69,-0.35,-2.34
1.974,0.2,-3.69,-3.86,-3.91,-1.22,-2.28
1.975,0.2,-3.69,-3.86,-3.91,-1.22,-2.28
1.975,0.2,-3.69,-3.86,-3.91,-1.22,-2.28
1.975,0.2,-3.69,-3.86,-3.91,-1.22,-2.28
1.975,0.2,-3.69,-3.86,-3.93,-1.33,-2.27
1.976,0.2,-3.69,-3.86,-3.95,-1.45,-2.26
1.976,0.2,-3.69,-3.86,-4,-1.67,-2.23
1.976,-1.55,-2.01,-2.78,-4,-1.67,-2.23
1.976,-1.47,-1.24,-3.17,-4,-1.67,-2.23
1.976,-1.47,-1.24,-3.17,-4.01,-1.79,-2.22
1.978,-1.47,-1.24,-3.17,-4.05,-2.03,-2.18
1.981,-1.47,-1.24,-3.17,-4.07,-2.28,-2.13
1.981,-1.85,-0.52,-2.04,-4.07,-2.28,-2.13
1.986,-1.85,-0.52,-2.04,-4.09,-2.52,-2.07
1.987,-1.85,-0.52,-2.04,-4.1,-2.63,-2.04
1.987,-1.85,-0.52,-2.04,-4.12,-2.83,-1.97
1.99,-1.85,-0.52,-2.04,-4.14,-3.01,-1.91
1.991,-1.85,-0.52,-2.04,-4.15,-3.09,-1.88
1.991,-1.83,-0.34,-2.19,-4.15,-3.09,-1.88
1.991,-1.83,-0.34,-2.19,-4.17,-3.24,-1.8
1.996,-1.83,-0.34,-2.19,-4.19,-3.38,-1.73
1.997,-1.83,-0.34,-2.19,-4.22,-3.51,-1.66
1.999,-1.83,-0.34,-2.19,-4.23,-3.57,-1.63
2.014,-1.83,-0.34,-2.19,-4.25,-3.69,-1.56
2.015,-1.83,-0.34,-2.19,-4.27,-4.24,-1.26
2.015,-1.83,-0.34,-2.19,-4.27,-4.24,-1.26
2.015,-1.83,-0.34,-2.19,-4.27,-4.33,-1.22
2.016,-1.83,-0.34,-2.19,-4.27,-4.33,-1.22
2.016,-1.83,-0.34,-2.19,-4.26,-4.42,-1.18
2.02,-1.83,-0.34,-2.19,-4.26,-4.42,-1.18
2.021,-1.83,-0.34,-2.19,-4.25,-4.64,-1.09
2.021,-0.54,-1.81,-1.07,-4.25,-4.64,-1.09
2.021,-1.07,-1.02,-1.73,-4.25,-4.64,-1.09
2.022,-1.39,-0.61,-2.03,-4.25,-4.64,-1.09
2.022,-1.39,-0.61,-2.03,-4.23,-4.93,-1
2.022,-1.39,-0.61,-2.03,-4.2,-5.27,-0.89
2.022,-1.39,-0.61,-2.03,-4.18,-5.46,-0.84
2.022,-0.49,-0.82,-0.46,-4.18,-5.46,-0.84
2.023,-0.49,-0.82,-0.46,-4.14,-5.86,-0.73
2.024,-0.49,-0.82,-0.46,-4.08,-6.31,-0.62
2.027,-0.49,-0.82,-0.46,-4.02,-6.78,-0.5
2.027,-0.49,-0.82,-0.46,-3.98,-7.03,-0.44
2.03,-0.49,-0.82,-0.46,-3.89,-7.55,-0.32
2.03,0.63,-0.41,0.61,-3.89,-7.55,-0.32
2.032,0.63,-0.41,0.61,-3.8,-8.09,-0.21
2.035,0.63,-0.41,0.61,-3.75,-8.37,-0.15
2.035,0.63,-0.41,0.61,-3.63,-8.93,-0.04
2.039,0.63,-0.41,0.61,-3.51,-9.51,0.07
2.054,0.63,-0.41,0.61,-3.39,-9.93,0.17
2.055,0.63,-0.41,0.61,-3.13,-7.67,0.21
2.055,0.63,-0.41,0.61,-3.04,-7.56,0.18
2.056,0.63,-0.41,0.61,-2.94,-7.45,0.14
2.056,0.63,-0.41,0.61,-2.94,-7.45,0.14
2.056,0.63,-0.41,0.61,-2.94,-7.45,0.14
2.056,0.63,-0.41,0.61,-2.94,-7.45,0.14
2.056,3.71,1.01,7.49,-2.94,-7.45,0.14
2.057,2.84,1.3,7.06,-2.94,-7.45,0.14
2.057,2.14,1.58,6.8,-2.94,-7.45,0.14
2.057,2.14,1.58,6.8,-2.73,-7.15,0.07
2.058,2.14,1.58,6.8,-2.62,-6.94,0.04
2.058,2.14,1.58,6.8,-2.43,-6.42,-0.06
2.061,2.14,1.58,6.8,-2.26,-5.78,-0.17
2.061,2.53,2.43,6.98,-2.26,-5.78,-0.17
2.061,2.53,2.43,6.98,-2.1,-5.1,-0.28
2.063,2.53,2.43,6.98,-2.02,-4.75,-0.34
2.066,2.53,2.43,6.98,-1.87,-4.04,-0.46
2.067,2.53,2.43,6.98,-1.72,-3.3,-0.57
2.07,2.53,2.43,6.98,-1.57,-2.58,-0.66
2.071,1.98,2.28,5.43,-1.57,-2.58,-0.66
2.071,1.98,2.28,5.43,-1.5,-2.23,-0.7
2.073,1.98,2.28,5.43,-1.35,-1.58,-0.76
2.076,1.98,2.28,5.43,-1.19,-0.98,-0.78
2.078,1.98,2.28,5.43,-1.11,-0.7,-0.79
2.09,1.98,2.28,5.43,-0.96,-0.2,-0.77
2.09,1.98,2.28,5.43,-0.36,1.25,-0.53
2.091,1.98,2.28,5.43,-0.36,1.25,-0.53
2.091,1.98,2.28,5.43,-0.36,1.25,-0.53
2.091,1.98,2.28,5.43,-0.36,1.25,-0.53
2.091,-0.32,0.29,2.83,-0.36,1.25,-0.53
2.092,-0.32,0.29,2.83,-0.28,1.37,-0.48
2.092,-0.32,0.29,2.83,-0.13,1.56,-0.38
2.092,-0.44,0.26,2.71,-0.13,1.56,-0.38
2.093,-0.44,0.26,2.71,-0.06,1.65,-0.32
2.095,-0.44,0.26,2.71,0.09,1.78,-0.21
2.098,-0.44,0.26,2.71,0.23,1.86,-0.09
2.103,-0.44,0.26,2.71,0.29,1.9,-0.03
2.103,-0.44,0.26,2.71,0.43,1.95,0.08
2.104,-1.08,-0.67,2.09,0.43,1.95,0.08
2.104,-1.08,-0.67,2.09,0.56,1.96,0.2
2.108,-1.08,-0.67,2.09,0.7,1.95,0.32
2.109,-1.08,-0.67,2.09,0.77,1.95,0.37
2.111,-1.08,-0.67,2.09,0.9,1.92,0.48
2.111,-1.15,-0.48,2.33,0.9,1.92,0.48
2.112,-1.15,-0.48,2.33,1.03,1.88,0.57
2.113,-1.15,-0.48,2.33,1.16,1.85,0.65
2.116,-1.15,-0.48,2.33,1.23,1.82,0.68
2.118,-1.15,-0.48,2.33,1.37,1.76,0.75
2.133,-1.15,-0.48,2.33,1.51,1.69,0.8
2.133,-1.15,-0.48,2.33,1.41,0.51,0.83
2.134,-1.15,-0.48,2.33,1.41,0.51,0.83
2.134,-1.15,-0.48,2.33,1.41,0.51,0.83
2.134,-1.15,-0.48,2.33,1.35,0.27,0.82
2.134,-1.15,-0.48,2.33,1.29,0.03,0.8
2.135,-1.15,-0.48,2.33,1.29,0.03,0.8
2.135,-0.92,3.58,2.77,1.29,0.03,0.8
2.135,-0.7,3.26,2.82,1.29,0.03,0.8
2.135,-0.7,3.26,2.82,1.21,-0.45,0.78
2.136,-0.7,3.26,2.82,1.19,-0.9,0.78
2.138,-0.7,3.26,2.82,1.2,-1.09,0.79
2.141,-0.7,3.26,2.82,1.24,-1.47,0.8
2.141,-1.21,5.08,5.29,1.24,-1.47,0.8
2.142,-1.21,5.08,5.29,1.29,-1.8,0.82
2.143,-1.21,5.08,5.29,1.31,-1.95,0.83
2.145,-1.21,5.08,5.29,1.38,-2.2,0.84
2.147,-1.21,5.08,5.29,1.46,-2.37,0.83
2.151,-1.21,5.08,5.29,1.57,-2.47,0.8
2.151,0.48,4.97,6.52,1.57,-2.47,0.8
2.152,0.48,4.97,6.52,1.63,-2.49,0.79
2.154,0.48,4.97,6.52,1.77,-2.51,0.75
2.156,0.48,4.97,6.52,1.92,-2.47,0.7
2.159,0.48,4.97,6.52,2.09,-2.42,0.68
2.174,0.48,4.97,6.52,2.18,-2.38,0.68
2.174,0.48,4.97,6.52,3.04,-1.81,0.68
2.175,0.48,4.97,6.52,3.04,-1.81,0.68
2.175,0.48,4.97,6.52,3.14,-1.73,0.67
2.175,0.48,4.97,6.52,3.24,-1.65,0.67
2.175,0.48,4.97,6.52,3.24,-1.65,0.67
2.175,0.48,4.97,6.52,3.24,-1.65,0.67
2.176,0.48,4.97,6.52,3.34,-1.57,0.67
2.179,2.06,1.47,6.98,3.34,-1.57,0.67
2.179,1.66,0.94,6.88,3.34,-1.57,0.67
2.179,1.49,0.63,6.86,3.34,-1.57,0.67
2.18,1.49,0.63,6.86,3.54,-1.39,0.66
2.18,1.49,0.63,6.86,3.73,-1.21,0.65
2.181,1.49,0.63,6.86,3.92,-1.03,0.64
2.186,0.94,0.26,6.22,3.92,-1.03,0.64
2.187,0.94,0.26,6.22,4.02,-0.95,0.63
2.187,0.94,0.26,6.22,4.2,-0.79,0.6
2.187,0.94,0.26,6.22,4.36,-0.66,0.56
2.188,0.94,0.26,6.22,4.44,-0.6,0.53
2.191,0.94,0.26,6.22,4.57,-0.49,0.47
2.192,0.61,-0.28,4.51,4.57,-0.49,0.47
2.194,0.61,-0.28,4.51,4.68,-0.4,0.4
2.194,0.61,-0.28,4.51,4.77,-0.34,0.31
2.196,0.61,-0.28,4.51,4.81,-0.31,0.27
2.198,0.61,-0.28,4.51,4.88,-0.27,0.19
2.212,0.61,-0.28,4.51,4.94,-0.25,0.13
2.213,0.61,-0.28,4.51,5.13,-0.38,0.04
2.213,0.61,-0.28,4.51,5.13,-0.38,0.04
2.213,0.61,-0.28,4.51,5.13,-0.38,0.04
2.214,0.61,-0.28,4.51,5.13,-0.38,0.04
2.214,0.61,-0.28,4.51,5.14,-0.42,0.03
2.214,0.61,-0.28,4.51,5.16,-0.46,0.03
2.214,-1.97,0.83,0.83,5.16,-0.46,0.03
2.214,-2.04,-0.11,1.03,5.16,-0.46,0.03
2.215,-2.04,-0.11,1.03,5.17,-0.54,0.04
2.216,-2.04,-0.11,1.03,5.19,-0.63,0.04
2.219,-2.04,-0.11,1.03,5.2,-0.68,0.05
2.222,-2.04,-0.11,1.03,5.22,-0.78,0.06
2.222,-2.04,-0.11,1.03,5.23,-0.87,0.07
2.222,-2.36,-0.83,0.07,5.23,-0.87,0.07
2.224,-2.36,-0.83,0.07,5.24,-0.97,0.08
2.226,-2.36,-0.83,0.07,5.25,-1.01,0.08
2.228,-2.36,-0.83,0.07,5.26,-1.1,0.1
2.232,-2.36,-0.83,0.07,5.26,-1.17,0.11
2.233,-2.58,-1.86,-0.78,5.26,-1.17,0.11
2.233,-2.58,-1.86,-0.78,5.26,-1.2,0.12
2.234,-2.58,-1.86,-0.78,5.26,-1.23,0.13
2.235,-2.58,-1.86,-0.78,5.24,-1.24,0.14
2.238,-2.58,-1.86,-0.78,5.22,-1.25,0.16
2.255,-2.58,-1.86,-0.78,5.21,-1.26,0.17
2.256,-2.58,-1.86,-0.78,5.12,-1.31,0.35
2.256,-2.58,-1.86,-0.78,5.12,-1.31,0.35
2.256,-2.58,-1.86,-0.78,5.12,-1.31,0.35
2.257,-2.58,-1.86,-0.78,5.12,-1.32,0.38
2.257,-2.58,-1.86,-0.78,5.11,-1.34,0.41
2.257,-2.58,-1.86,-0.78,5.11,-1.34,0.41
2.257,-2.58,-1.86,-0.78,5.11,-1.36,0.45
2.257,-3.26,-1.59,-1.73,5.11,-1.36,0.45
2.258,-3.51,-2.48,-1.31,5.11,-1.36,0.45
2.258,-3.51,-2.48,-1.31,5.1,-1.4,0.51
2.258,-3.51,-2.48,-1.31,5.09,-1.42,0.59
2.261,-3.51,-2.48,-1.31,5.07,-1.44,0.67
2.261,-3.93,-1.61,-1.05,5.07,-1.44,0.67
2.261,-3.93,-1.61,-1.05,5.07,-1.44,0.71
2.264,-3.93,-1.61,-1.05,5.05,-1.45,0.79
2.267,-3.93,-1.61,-1.05,5.03,-1.45,0.86
2.268,-3.93,-1.61,-1.05,5.02,-1.45,0.93
2.272,-3.93,-1.61,-1.05,5.01,-1.46,0.96
2.272,-3.93,-1.61,-1.05,4.99,-1.48,1.01
2.272,-3.76,-1.63,-0.76,4.99,-1.48,1.01
2.273,-3.76,-1.63,-0.76,4.96,-1.5,1.05
2.276,-3.76,-1.63,-0.76,4.94,-1.51,1.06
2.278,-3.76,-1.63,-0.76,4.9,-1.52,1.08
2.294,-3.76,-1.63,-0.76,4.86,-1.52,1.08
2.295,-3.76,-1.63,-0.76,4.61,-1.54,1
2.295,-3.76,-1.63,-0.76,4.58,-1.56,0.99
2.295,-3.76,-1.63,-0.76,4.58,-1.56,0.99
2.295,-3.76,-1.63,-0.76,4.58,-1.56,0.99
2.296,-3.76,-1.63,-0.76,4.55,-1.57,0.97
2.296,-3.76,-1.63,-0.76,4.55,-1.57,0.97
2.296,-3.76,-1.63,-0.76,4.52,-1.59,0.96
2.296,-1.97,-2.27,-1.19,4.52,-1.59,0.96
2.297,-2.15,-2.64,-0.89,4.52,-1.59,0.96
2.297,-2.32,-2.98,-0.6,4.52,-1.59,0.96
2.297,-2.32,-2.98,-0.6,4.46,-1.62,0.92
2.298,-2.32,-2.98,-0.6,4.44,-1.64,0.91
2.303,-2.32,-2.98,-0.6,4.38,-1.68,0.88
2.304,-1.91,-3.29,-0.96,4.38,-1.68,0.88
2.304,-1.91,-3.29,-0.96,4.32,-1.71,0.85
2.312,-1.91,-3.29,-0.96,4.27,-1.74,0.82
2.312,-1.91,-3.29,-0.96,4.24,-1.75,0.81
2.313,-1.91,-3.29,-0.96,4.19,-1.77,0.78
2.313,-1.91,-3.29,-0.96,4.14,-1.77,0.75
2.313,-1.91,-3.29,-0.96,4.09,-1.77,0.73
2.313,-1.88,-3.68,-1.1,4.09,-1.77,0.73
2.314,-1.88,-3.68,-1.1,4.06,-1.77,0.71
2.316,-1.88,-3.68,-1.1,4.02,-1.76,0.69
2.318,-1.88,-3.68,-1.1,3.96,-1.73,0.67
2.333,-1.88,-3.68,-1.1,3.94,-1.71,0.66
2.334,-1.88,-3.68,-1.1,3.7,-1.49,0.62
2.334,-1.88,-3.68,-1.1,3.7,-1.49,0.62
2.334,-1.88,-3.68,-1.1,3.7,-1.49,0.62
2.335,-1.88,-3.68,-1.1,3.68,-1.46,0.62
2.335,-1.88,-3.68,-1.1,3.65,-1.43,0.62
2.335,-1.88,-3.68,-1.1,3.65,-1.43,0.62
2.335,-1.88,-3.68,-1.1,3.6,-1.38,0.62
2.336,-1.67,-3,-1.62,3.6,-1.38,0.62
2.336,-1.67,-3,-1.62,3.6,-1.38,0.62
2.341,-1.96,-3.47,-1.04,3.6,-1.38,0.62
2.343,-1.96,-3.47,-1.04,3.57,-1.36,0.63
2.344,-1.96,-3.47,-1.04,3.51,-1.31,0.64
2.344,-1.96,-3.47,-1.04,3.46,-1.27,0.64
2.345,-1.96,-3.47,-1.04,3.42,-1.25,0.65
2.345,-1.94,-2.81,-1.26,3.42,-1.25,0.65
2.345,-1.94,-2.81,-1.26,3.36,-1.21,0.67
2.346,-1.94,-2.81,-1.26,3.3,-1.19,0.68
2.347,-1.94,-2.81,-1.26,3.24,-1.17,0.69
2.354,-1.94,-2.81,-1.26,3.2,-1.16,0.7
2.356,-2.03,-2.61,-1.29,3.2,-1.16,0.7
2.356,-2.03,-2.61,-1.29,3.14,-1.15,0.71
2.356,-2.03,-2.61,-1.29,3.07,-1.16,0.72
2.356,-2.03,-2.61,-1.29,3.01,-1.16,0.72
2.358,-2.03,-2.61,-1.29,2.98,-1.16,0.73
2.372,-2.03,-2.61,-1.29,2.92,-1.15,0.74
2.373,-2.03,-2.61,-1.29,2.7,-0.97,0.77
2.373,-2.03,-2.61,-1.29,2.7,-0.97,0.77
2.373,-2.03,-2.61,-1.29,2.7,-0.97,0.77
2.373,-2.03,-2.61,-1.29,2.67,-0.95,0.77
2.374,-2.03,-2.61,-1.29,2.64,-0.91,0.78
2.374,-2.03,-2.61,-1.29,2.64,-0.91,0.78
2.374,-2.05,-2.42,-1.53,2.64,-0.91,0.78
2.374,-2.28,-2.7,-1.06,2.64,-0.91,0.78
2.374,-2.39,-2.82,-0.82,2.64,-0.91,0.78
2.375,-2.39,-2.82,-0.82,2.59,-0.85,0.79
2.375,-2.39,-2.82,-0.82,2.54,-0.78,0.8
2.377,-2.39,-2.82,-0.82,2.48,-0.71,0.82
2.381,-2.39,-2.82,-0.82,2.45,-0.67,0.82
2.381,-2.11,-2.52,-1.25,2.45,-0.67,0.82
2.382,-2.11,-2.52,-1.25,2.39,-0.6,0.83
2.383,-2.11,-2.52,-1.25,2.33,-0.54,0.84
2.387,-2.11,-2.52,-1.25,2.3,-0.5,0.84
2.387,-2.11,-2.52,-1.25,2.23,-0.44,0.85
2.39,-2.11,-2.52,-1.25,2.17,-0.37,0.86
2.391,-1.76,-2.04,-1.57,2.17,-0.37,0.86
2.391,-1.76,-2.04,-1.57,2.1,-0.31,0.86
2.394,-1.76,-2.04,-1.57,2.07,-0.28,0.86
2.396,-1.76,-2.04,-1.57,2,-0.23,0.86
2.398,-1.76,-2.04,-1.57,1.94,-0.17,0.86
2.414,-1.76,-2.04,-1.57,1.88,-0.12,0.86
2.415,-1.76,-2.04,-1.57,1.62,0.04,0.83
2.415,-1.76,-2.04,-1.57,1.59,0.06,0.82
2.415,-1.76,-2.04,-1.57,1.56,0.07,0.81
2.416,-1.76,-2.04,-1.57,1.56,0.07,0.81
2.416,-1.76,-2.04,-1.57,1.56,0.07,0.81
2.416,-1.76,-2.04,-1.57,1.56,0.07,0.81
2.416,-1.76,-2.04,-1.57,1.5,0.1,0.79
2.416,-1.12,-1.28,-1.96,1.5,0.1,0.79
2.416,-1.2,-1.35,-1.79,1.5,0.1,0.79
2.416,-1.27,-1.4,-1.65,1.5,0.1,0.79
2.417,-1.27,-1.4,-1.65,1.46,0.1,0.78
2.418,-1.27,-1.4,-1.65,1.41,0.12,0.74
2.422,-1.27,-1.4,-1.65,1.35,0.14,0.71
2.422,-1.27,-1.4,-1.65,1.29,0.17,0.67
2.422,-0.72,-0.95,-1.67,1.29,0.17,0.67
2.424,-0.72,-0.95,-1.67,1.27,0.19,0.65
2.426,-0.72,-0.95,-1.67,1.22,0.23,0.62
2.427,-0.72,-0.95,-1.67,1.17,0.27,0.59
2.431,-0.72,-0.95,-1.67,1.14,0.29,0.57
2.432,-0.88,-1.13,-1.36,1.14,0.29,0.57
2.432,-0.88,-1.13,-1.36,1.1,0.33,0.54
2.434,-0.88,-1.13,-1.36,1.06,0.36,0.51
2.438,-0.88,-1.13,-1.36,1.02,0.4,0.48
2.439,-0.88,-1.13,-1.36,0.99,0.41,0.47
2.455,-0.88,-1.13,-1.36,0.95,0.44,0.44
2.455,-0.88,-1.13,-1.36,0.77,0.51,0.35
2.456,-0.88,-1.13,-1.36,0.77,0.51,0.35
2.456,-0.88,-1.13,-1.36,0.77,0.51,0.35
2.456,-0.88,-1.13,-1.36,0.75,0.51,0.34
2.456,-0.88,-1.13,-1.36,0.75,0.51,0.34
2.457,-0.88,-1.13,-1.36,0.72,0.51,0.34
2.457,-0.88,-1.13,-1.36,0.67,0.51,0.32
2.457,-0.99,-1.46,-1.38,0.67,0.51,0.32
2.458,-1.03,-1.51,-1.24,0.67,0.51,0.32
2.458,-1.03,-1.51,-1.24,0.63,0.51,0.31
2.458,-1.03,-1.51,-1.24,0.57,0.49,0.31
2.461,-1.03,-1.51,-1.24,0.55,0.49,0.31
2.461,-1.11,-1.44,-1.14,0.55,0.49,0.31
2.461,-1.11,-1.44,-1.14,0.5,0.48,0.3
2.464,-1.11,-1.44,-1.14,0.45,0.48,0.3
2.466,-1.11,-1.44,-1.14,0.4,0.49,0.3
2.468,-1.11,-1.44,-1.14,0.38,0.49,0.31
2.473,-1.11,-1.44,-1.14,0.33,0.49,0.31
2.473,-1.11,-1.44,-1.14,0.28,0.49,0.33
2.474,-1.37,-0.97,-0.87,0.28,0.49,0.33
2.474,-1.37,-0.97,-0.87,0.26,0.5,0.33
2.475,-1.37,-0.97,-0.87,0.23,0.5,0.35
2.477,-1.37,-0.97,-0.87,0.19,0.5,0.37
2.494,-1.37,-0.97,-0.87,0.16,0.5,0.39
2.495,-1.37,-0.97,-0.87,0.06,0.53,0.45
2.495,-1.37,-0.97,-0.87,0.05,0.53,0.45
2.495,-1.37,-0.97,-0.87,0.04,0.54,0.45
2.496,-1.37,-0.97,-0.87,0.04,0.54,0.45
2.496,-1.37,-0.97,-0.87,0.04,0.54,0.45
2.496,-1.37,-0.97,-0.87,0.04,0.54,0.45
2.496,-1.37,-0.97,-0.87,0.02,0.55,0.46
2.497,-1.24,-0.38,-0.33,0.02,0.55,0.46
2.497,-1.26,-0.38,-0.32,0.02,0.55,0.46
2.497,-1.28,-0.37,-0.32,0.02,0.55,0.46
2.501,-1.28,-0.37,-0.32,0.01,0.55,0.46
2.502,-1.28,-0.37,-0.32,-0.01,0.56,0.45
2.506,-1.28,-0.37,-0.32,-0.03,0.57,0.45
2.507,-1.28,-0.37,-0.32,-0.04,0.59,0.44
2.507,-0.83,-0.43,-0.22,-0.04,0.59,0.44
2.507,-0.83,-0.43,-0.22,-0.05,0.6,0.43
2.507,-0.83,-0.43,-0.22,-0.07,0.61,0.42
2.507,-0.83,-0.43,-0.22,-0.09,0.63,0.4
2.511,-0.83,-0.43,-0.22,-0.11,0.64,0.38
2.512,-0.59,-0.44,-0.25,-0.11,0.64,0.38
2.512,-0.59,-0.44,-0.25,-0.12,0.65,0.38
2.519,-0.59,-0.44,-0.25,-0.14,0.66,0.36
2.52,-0.59,-0.44,-0.25,-0.16,0.68,0.34
2.52,-0.59,-0.44,-0.25,-0.17,0.68,0.33
2.535,-0.59,-0.44,-0.25,-0.19,0.7,0.31
2.536,-0.59,-0.44,-0.25,-0.29,0.75,0.26
2.536,-0.59,-0.44,-0.25,-0.29,0.75,0.26
2.536,-0.59,-0.44,-0.25,-0.3,0.76,0.25
2.536,-0.59,-0.44,-0.25,-0.3,0.76,0.25
2.537,-0.59,-0.44,-0.25,-0.31,0.76,0.25
2.537,-0.59,-0.44,-0.25,-0.31,0.76,0.25
2.537,-0.59,-0.44,-0.25,-0.32,0.76,0.24
2.538,-0.65,-0.05,-0.25,-0.32,0.76,0.24
2.538,-0.66,-0.04,-0.28,-0.32,0.76,0.24
2.538,-0.65,-0.02,-0.31,-0.32,0.76,0.24
2.538,-0.65,-0.02,-0.31,-0.33,0.76,0.23
2.539,-0.65,-0.02,-0.31,-0.35,0.76,0.23
2.541,-0.65,-0.02,-0.31,-0.37,0.76,0.22
2.542,-0.8,0.23,-0.12,-0.37,0.76,0.22
2.542,-0.8,0.23,-0.12,-0.38,0.75,0.22
2.543,-0.8,0.23,-0.12,-0.39,0.75,0.21
2.545,-0.8,0.23,-0.12,-0.41,0.74,0.2
2.547,-0.8,0.23,-0.12,-0.41,0.73,0.2
2.551,-0.8,0.23,-0.12,-0.42,0.71,0.19
2.551,-0.84,0.41,0.33,-0.42,0.71,0.19
2.553,-0.84,0.41,0.33,-0.42,0.69,0.18
2.554,-0.84,0.41,0.33,-0.42,0.67,0.18
2.555,-0.84,0.41,0.33,-0.42,0.66,0.17
2.557,-0.84,0.41,0.33,-0.41,0.63,0.17
2.574,-0.84,0.41,0.33,-0.39,0.6,0.16
2.574,-0.84,0.41,0.33,-0.29,0.47,0.12
2.575,-0.84,0.41,0.33,-0.29,0.47,0.12
2.575,-0.84,0.41,0.33,-0.29,0.47,0.12
2.575,-0.84,0.41,0.33,-0.28,0.45,0.11
2.575,-0.84,0.41,0.33,-0.26,0.43,0.11
2.576,-0.84,0.41,0.33,-0.26,0.43,0.11
2.576,-0.68,0.42,1.49,-0.26,0.43,0.11
2.576,-0.66,0.44,1.41,-0.26,0.43,0.11
2.576,-0.66,0.44,1.41,-0.22,0.4,0.1
2.577,-0.66,0.44,1.41,-0.18,0.36,0.08
2.577,-0.66,0.44,1.41,-0.16,0.33,0.08
2.582,-0.66,0.44,1.41,-0.12,0.29,0.07
2.582,-0.57,0.34,1.59,-0.12,0.29,0.07
2.582,-0.57,0.34,1.59,-0.08,0.25,0.05
2.587,-0.57,0.34,1.59,-0.06,0.23,0.04
2.588,-0.57,0.34,1.59,-0.02,0.19,0.03
2.588,-0.57,0.34,1.59,0.01,0.15,0.02
2.593,-0.57,0.34,1.59,0.05,0.1,0.01
2.594,-0.58,0.24,1.4,0.05,0.1,0.01
2.594,-0.58,0.24,1.4,0.06,0.08,0
2.594,-0.58,0.24,1.4,0.09,0.04,-0.01
2.596,-0.58,0.24,1.4,0.12,0.01,-0.02
2.598,-0.58,0.24,1.4,0.14,-0.03,-0.03
2.613,-0.58,0.24,1.4,0.15,-0.05,-0.03
2.614,-0.58,0.24,1.4,0.19,-0.14,-0.05
2.614,-0.58,0.24,1.4,0.2,-0.14,-0.05
2.615,-0.58,0.24,1.4,0.2,-0.14,-0.05
2.615,-0.58,0.24,1.4,0.19,-0.15,-0.05
2.615,-0.58,0.24,1.4,0.19,-0.15,-0.06
2.615,-0.58,0.24,1.4,0.19,-0.15,-0.06
2.615,-0.83,0.2,0.65,0.19,-0.15,-0.06
2.616,-0.81,0.19,0.67,0.19,-0.15,-0.06
2.616,-0.81,0.19,0.67,0.2,-0.15,-0.05
2.616,-0.81,0.19,0.67,0.19,-0.16,-0.05
2.618,-0.81,0.19,0.67,0.18,-0.15,-0.05
2.621,-0.81,0.19,0.67,0.17,-0.15,-0.05
2.621,-0.81,0.19,0.67,0.16,-0.14,-0.05
2.622,-0.84,0.16,0.51,0.16,-0.14,-0.05
2.623,-0.84,0.16,0.51,0.16,-0.14,-0.05
2.626,-0.84,0.16,0.51,0.14,-0.13,-0.05
2.628,-0.84,0.16,0.51,0.14,-0.12,-0.05
2.631,-0.84,0.16,0.51,0.12,-0.1,-0.05
2.632,-0.79,0.09,0.48,0.12,-0.1,-0.05
2.632,-0.79,0.09,0.48,0.11,-0.09,-0.04
2.634,-0.79,0.09,0.48,0.1,-0.07,-0.04
2.635,-0.79,0.09,0.48,0.09,-0.06,-0.05
2.637,-0.79,0.09,0.48,0.08,-0.04,-0.04
2.656,-0.79,0.09,0.48,0.07,-0.02,-0.04
2.657,-0.79,0.09,0.48,0.04,0.07,-0.05
2.657,-0.79,0.09,0.48,0.04,0.08,-0.05
2.657,-0.79,0.09,0.48,0.04,0.09,-0.05
2.658,-0.79,0.09,0.48,0.04,0.09,-0.05
2.658,-0.79,0.09,0.48,0.04,0.09,-0.05
2.658,-0.79,0.09,0.48,0.04,0.1,-0.05
2.658,-0.79,0.09,0.48,0.04,0.11,-0.05
2.659,-0.73,-0.04,0.74,0.04,0.11,-0.05
2.659,-0.71,-0.04,0.74,0.04,0.11,-0.05
2.659,-0.71,-0.04,0.74,0.04,0.12,-0.06
2.66,-0.71,-0.04,0.74,0.04,0.13,-0.06
2.662,-0.71,-0.04,0.74,0.04,0.15,-0.06
2.666,-0.71,-0.04,0.74,0.05,0.16,-0.07
2.667,-0.69,-0.12,0.76,0.05,0.16,-0.07
2.667,-0.69,-0.12,0.76,0.05,0.17,-0.07
2.668,-0.69,-0.12,0.76,0.05,0.18,-0.07
2.67,-0.69,-0.12,0.76,0.06,0.19,-0.08
2.674,-0.69,-0.12,0.76,0.06,0.19,-0.09
2.674,-0.69,-0.12,0.76,0.06,0.2,-0.09
2.674,-0.68,-0.19,0.68,0.06,0.2,-0.09
2.674,-0.68,-0.19,0.68,0.07,0.2,-0.1
2.676,-0.68,-0.19,0.68,0.07,0.2,-0.11
2.678,-0.68,-0.19,0.68,0.07,0.19,-0.12
2.694,-0.68,-0.19,0.68,0.07,0.19,-0.12
2.695,-0.68,-0.19,0.68,0.06,0.15,-0.14
2.695,-0.68,-0.19,0.68,0.06,0.15,-0.14
2.695,-0.68,-0.19,0.68,0.06,0.15,-0.14
2.695,-0.68,-0.19,0.68,0.05,0.15,-0.14
2.695,-0.68,-0.19,0.68,0.05,0.15,-0.14
2.696,-0.68,-0.19,0.68,0.05,0.15,-0.14
2.696,-0.68,-0.19,0.68,0.04,0.15,-0.14
2.696,-1.32,-0.07,0.29,0.04,0.15,-0.14
2.696,-1.27,-0.07,0.29,0.04,0.15,-0.14
2.696,-1.27,-0.07,0.29,0.03,0.16,-0.14
2.698,-1.27,-0.07,0.29,0.02,0.16,-0.14
2.705,-1.27,-0.07,0.29,0.01,0.16,-0.14
2.706,-1.27,-0.07,0.29,0.01,0.15,-0.13
2.707,-1.04,-0.22,0.04,0.01,0.15,-0.13
2.707,-1.04,-0.22,0.04,-0.01,0.14,-0.13
2.707,-1.04,-0.22,0.04,-0.02,0.12,-0.13
2.71,-1.04,-0.22,0.04,-0.04,0.11,-0.14
2.712,-1.04,-0.22,0.04,-0.05,0.1,-0.14
2.713,-1.21,-0.47,0.2,-0.05,0.1,-0.14
2.713,-1.21,-0.47,0.2,-0.06,0.08,-0.14
2.714,-1.21,-0.47,0.2,-0.07,0.06,-0.14
2.716,-1.21,-0.47,0.2,-0.08,0.05,-0.14
2.72,-1.21,-0.47,0.2,-0.09,0.04,-0.14
2.734,-1.21,-0.47,0.2,-0.1,0.03,-0.15
2.735,-1.21,-0.47,0.2,-0.12,-0.01,-0.14
2.735,-1.21,-0.47,0.2,-0.12,-0.01,-0.14
2.735,-1.21,-0.47,0.2,-0.12,-0.01,-0.14
2.735,-1.21,-0.47,0.2,-0.11,-0.02,-0.13
2.735,-1.21,-0.47,0.2,-0.11,-0.02,-0.13
2.736,-1.21,-0.47,0.2,-0.11,-0.02,-0.13
2.736,-1.21,-0.47,0.2,-0.11,-0.02,-0.12
2.736,-1.56,-0.39,0.66,-0.11,-0.02,-0.12
2.736,-1.52,-0.39,0.63,-0.11,-0.02,-0.12
2.736,-1.52,-0.39,0.63,-0.1,-0.02,-0.11
2.737,-1.52,-0.39,0.63,-0.1,-0.02,-0.11
2.741,-1.52,-0.39,0.63,-0.09,-0.02,-0.09
2.741,-1.74,-0.27,0.89,-0.09,-0.02,-0.09
2.742,-1.74,-0.27,0.89,-0.07,-0.02,-0.08
2.743,-1.74,-0.27,0.89,-0.06,-0.02,-0.07
2.745,-1.74,-0.27,0.89,-0.06,-0.01,-0.06
2.747,-1.74,-0.27,0.89,-0.05,-0.01,-0.05
2.754,-1.74,-0.27,0.89,-0.03,-0.01,-0.04
2.755,-1.48,-0.39,1.03,-0.03,-0.01,-0.04
2.755,-1.48,-0.39,1.03,-0.02,-0.01,-0.03
2.755,-1.48,-0.39,1.03,-0.01,-0.01,-0.03
2.756,-1.48,-0.39,1.03,0,-0.02,-0.02
2.758,-1.48,-0.39,1.03,0.01,-0.03,-0.02
2.774,-1.48,-0.39,1.03,0.02,-0.03,-0.01
2.774,-1.48,-0.39,1.03,0.05,-0.05,-0.01
2.775,-1.48,-0.39,1.03,0.05,-0.05,0
2.775,-1.48,-0.39,1.03,0.05,-0.05,0
2.775,-1.48,-0.39,1.03,0.05,-0.05,0
2.775,-1.48,-0.39,1.03,0.05,-0.05,0
2.775,-1.48,-0.39,1.03,0.05,-0.05,0
2.776,-1.48,-0.39,1.03,0.06,-0.04,0
2.776,-1.14,-0.79,0.89,0.06,-0.04,0
2.776,-1.13,-0.79,0.89,0.06,-0.04,0
2.776,-1.13,-0.79,0.89,0.05,-0.04,0
2.778,-1.13,-0.79,0.89,0.06,-0.03,0
2.781,-1.13,-0.79,0.89,0.05,-0.02,0.01
2.782,-1.12,-0.72,0.68,0.05,-0.02,0.01
2.782,-1.12,-0.72,0.68,0.05,-0.01,0.01
2.784,-1.12,-0.72,0.68,0.05,0,0.01
2.786,-1.12,-0.72,0.68,0.04,0.01,0.02
2.788,-1.12,-0.72,0.68,0.03,0.03,0.02
2.791,-1.12,-0.72,0.68,0.03,0.04,0.02
2.792,-1.12,-0.56,0.62,0.03,0.04,0.02
