time,ax,ay,az,wx,wy,wz
0.005,0.04,-0.04,0.34,0,0.01,0
0.006,0.04,-0.04,0.34,0.01,0.02,0
0.006,0.04,-0.04,0.34,0.01,0.02,0
0.006,0.04,-0.04,0.34,0.01,0.02,0
0.006,0.04,-0.04,0.34,0.01,0.02,0
0.006,0.04,-0.04,0.34,0.01,0.02,0
0.007,0.04,-0.04,0.34,0.01,0.02,0
0.007,0.04,-0.04,0.34,0.01,0.02,0
0.007,0.04,-0.05,0.2,0.01,0.02,0
0.007,0.04,-0.05,0.2,0.01,0.02,0
0.007,0.04,-0.05,0.2,0.01,0.02,0
0.009,0.04,-0.05,0.2,0.01,0.02,0
0.014,0.04,-0.05,0.2,0.01,0.02,0
0.015,0.02,-0.03,0.17,0.01,0.02,0
0.015,0.02,-0.03,0.17,0.01,0.02,0
0.015,0.02,-0.03,0.17,0.01,0.01,0
0.018,0.02,-0.03,0.17,0.01,0.01,0
0.019,0.02,-0.03,0.17,0,0.01,0
0.023,0.02,-0.03,0.17,0.01,0.01,0
0.023,0.03,0.03,0.16,0.01,0.01,0
0.023,0.03,0.03,0.16,0,0,0
0.025,0.03,0.03,0.16,0,0,0
0.027,0.03,0.03,0.16,0,0,0
0.029,0.03,0.03,0.16,0,0,0
0.052,0.03,0.03,0.16,0,0,0
0.053,0.03,0.03,0.16,-0.01,-0.01,0
0.053,0.03,0.03,0.16,-0.01,-0.01,0
0.053,0.03,0.03,0.16,-0.01,-0.01,0
0.053,0.03,0.03,0.16,0,0,0
0.054,0.03,0.03,0.16,0,-0.01,0
0.054,0.03,0.03,0.16,0,-0.01,0
0.054,0.03,0.03,0.16,0,0,0
0.054,-0.01,0.07,0.21,0,0,0
0.054,-0.01,0.07,0.21,0,0,0
0.054,-0.01,0.07,0.21,-0.01,-0.01,0
0.055,-0.01,0.07,0.21,-0.01,-0.01,0
0.055,-0.01,0.07,0.21,-0.01,0,0
0.055,0.01,0.07,0.21,-0.01,0,0
0.055,0.01,0.07,0.21,0,0,0
0.055,0.01,0.07,0.21,-0.01,0,0
0.057,0.01,0.07,0.21,-0.01,-0.01,0
0.059,0.01,0.07,0.21,0,0,0
0.062,0.01,0.07,0.21,-0.01,0,0
0.063,0.01,0.04,0.22,-0.01,0,0
0.063,0.01,0.04,0.22,-0.01,0,0
0.066,0.01,0.04,0.22,-0.01,0,0
0.067,0.01,0.04,0.22,0,0,0
0.07,0.01,0.04,0.22,-0.01,0,0
0.085,0.01,0.04,0.22,-0.01,0,0
0.085,0.01,0.04,0.22,0,0,0
0.086,0.01,0.04,0.22,0,0,0
0.086,0.01,0.04,0.22,0,0,0
0.086,0.01,0.04,0.22,0,0,0
0.086,0.01,0.04,0.22,0,0,0
0.086,0.01,0.04,0.22,0,0,0
0.087,0.02,-0.03,0.18,0,0,0
0.087,0.02,-0.03,0.18,0,0,0
0.087,0.02,-0.03,0.18,-0.01,0,0
0.087,0.02,-0.03,0.18,0,0,0
0.089,0.02,-0.03,0.18,0,0,0
0.093,0.02,-0.03,0.18,0,0,0
0.093,0.02,-0.05,0.19,0,0,0
0.093,0.02,-0.05,0.19,0,0,0
0.095,0.02,-0.05,0.19,0,0,0
0.099,0.02,-0.05,0.19,0,0,0
0.099,0.02,-0.05,0.19,0,0,0
0.103,0.02,-0.05,0.19,0,0,0
0.103,0.03,-0.07,0.18,0,0,0
0.103,0.03,-0.07,0.18,0,0,0
0.106,0.03,-0.07,0.18,0,0,0
0.107,0.03,-0.07,0.18,0,0,0
0.11,0.03,-0.07,0.18,0,0,0
0.125,0.03,-0.07,0.18,0,0,0
0.125,0.03,-0.07,0.18,0,0,0
0.127,0.03,-0.07,0.18,0,0,0
0.127,0.03,-0.07,0.18,0,0,0
0.127,0.03,-0.07,0.18,0,0,0
0.127,0.03,-0.07,0.18,0.01,0,0
0.127,0.03,-0.07,0.18,0,0,0
0.128,0.01,0.01,0.2,0,0,0
0.128,0.01,0.01,0.2,0,0,0
0.128,0.01,0.01,0.2,0,0,0
0.128,0.01,0.01,0.2,0,0.01,0
0.136,0.01,0.01,0.2,0.01,0.01,0
0.136,0.01,0.01,0.2,0,0,0
0.137,0.01,0.02,0.24,0,0,0
0.137,0.01,0.02,0.24,0,0.01,0
0.137,0.01,0.02,0.24,0,0.01,0
0.137,0.01,0.02,0.24,0,0.01,0
0.14,0.01,0.02,0.24,0,0,0
0.142,0.01,0.02,0.24,0,0,0
0.143,0,0.01,0.21,0,0,0
0.143,0,0.01,0.21,0,0,0
0.145,0,0.01,0.21,0,0,0
0.148,0,0.01,0.21,0,0.01,0
0.151,0,0.01,0.21,0,0,0
0.164,0,0.01,0.21,0,0,0
0.165,0,0.01,0.21,0,0,0
0.165,0,0.01,0.21,0,0,0
0.165,0,0.01,0.21,0,0,0
0.165,0,0.01,0.21,0,0,0
0.165,0,0.01,0.21,0,0,0
0.166,0,0.01,0.21,0,0,0
0.166,0.01,0.02,0.22,0,0,0
0.166,0.01,0.02,0.22,0,0,0
0.166,0.01,0.02,0.22,0,0,0
0.168,0.01,0.02,0.22,0,-0.01,0
0.17,0.01,0.02,0.22,0,0,0
0.172,0.01,0.02,0.22,0,0,0
0.173,0.01,0.02,0.2,0,0,0
0.173,0.01,0.02,0.2,0,0,0
0.175,0.01,0.02,0.2,0,0,0
0.177,0.01,0.02,0.2,0,-0.01,0
0.179,0.01,0.02,0.2,0,-0.01,0
0.182,0.01,0.02,0.2,0,0,0
0.183,0,-0.02,0.19,0,0,0
0.183,0,-0.02,0.19,0,-0.01,0
0.185,0,-0.02,0.19,-0.01,-0.01,0
0.187,0,-0.02,0.19,0,0,0
0.19,0,-0.02,0.19,0,-0.01,0
0.205,0,-0.02,0.19,0,-0.01,0
0.205,0,-0.02,0.19,0,0,0
0.206,0,-0.02,0.19,0,0,0
0.206,0,-0.02,0.19,0,0,0
0.206,0,-0.02,0.19,0,0,0
0.206,0,-0.02,0.19,0,0,0
0.206,0,-0.02,0.19,0,0,0
0.207,0.02,-0.03,0.21,0,0,0
0.207,0.02,-0.03,0.21,0,0,0
0.207,0.02,-0.03,0.21,0,0,0
0.207,0.02,-0.03,0.21,0,0,0
0.209,0.02,-0.03,0.21,0,0,0
0.213,0.02,-0.03,0.21,0,0,0
0.213,0.05,0.02,0.21,0,0,0
0.213,0.05,0.02,0.21,0,0,0
0.215,0.05,0.02,0.21,0,0,0
0.217,0.05,0.02,0.21,0,0,0
0.22,0.05,0.02,0.21,0,0,0
0.222,0.05,0.02,0.21,0,0.01,0
0.223,0.02,0.03,0.24,0,0.01,0
0.223,0.02,0.03,0.24,0,0,0
0.225,0.02,0.03,0.24,0.01,0,0
0.227,0.02,0.03,0.24,0,0.01,0
0.232,0.02,0.03,0.24,0,0,0
0.245,0.02,0.03,0.24,0,0.01,0
0.246,0.02,0.03,0.24,0,0,0
0.246,0.02,0.03,0.24,0,0,0
0.246,0.02,0.03,0.24,0,0,0
0.246,0.02,0.03,0.24,0,0,0
0.246,0.02,0.03,0.24,0,0,0
0.247,0.02,0.03,0.24,0,0.01,0
0.247,0.02,0.03,0.24,0,0,0
0.247,0.01,0.04,0.16,0,0,0
0.247,0.01,0.04,0.16,0,0,0
0.247,0.01,0.04,0.16,0,0,0
0.25,0.01,0.04,0.16,0,0,0
0.253,0.01,0.04,0.16,0,0,0
0.253,0.01,0.04,0.16,0,0,0
0.254,0.01,0.06,0.19,0,0,0
0.256,0.01,0.06,0.19,0,0,0
0.257,0.01,0.06,0.19,0,0,0
0.259,0.01,0.06,0.19,0,0,0
0.262,0.01,0.06,0.19,0,0,0
0.263,-0.02,0.03,0.18,0,0,0
0.263,-0.02,0.03,0.18,0,0,0
0.265,-0.02,0.03,0.18,0,0,0
0.267,-0.02,0.03,0.18,0,0,0
0.27,-0.02,0.03,0.18,0,0,0
0.286,-0.02,0.03,0.18,0,0,0
0.287,-0.02,0.03,0.18,0,-0.01,0
0.287,-0.02,0.03,0.18,0,-0.01,0
0.287,-0.02,0.03,0.18,0,-0.01,0
0.287,-0.02,0.03,0.18,-0.01,-0.01,0
0.288,-0.02,0.03,0.18,-0.01,-0.01,0
0.29,-0.02,0.03,0.18,-0.01,-0.01,0
0.29,-0.02,0.03,0.18,0,-0.01,0
0.29,0,-0.08,0.21,0,-0.01,0
0.291,0,-0.08,0.21,0,-0.01,0
0.291,0,-0.08,0.21,0,-0.01,0
0.291,0,-0.08,0.21,-0.01,-0.01,0
0.291,0,-0.08,0.21,0,-0.01,0
0.293,0,-0.08,0.21,0,0,0
0.293,0.01,-0.08,0.22,0,0,0
0.294,0.01,-0.08,0.22,0,-0.01,0
0.295,0.01,-0.08,0.22,0,0,0
0.297,0.01,-0.08,0.22,0,-0.01,0
0.299,0.01,-0.08,0.22,0,0,0
0.302,0.01,-0.08,0.22,0,0,0
0.302,0.01,-0.04,0.24,0,0,0
0.304,0.01,-0.04,0.24,0,0,0
0.305,0.01,-0.04,0.24,0,0,0
0.307,0.01,-0.04,0.24,0,0,0
0.309,0.01,-0.04,0.24,0,0,0
0.325,0.01,-0.04,0.24,0,0.01,0
0.326,0.01,-0.04,0.24,0,0.01,0
0.326,0.01,-0.04,0.24,0.01,0.01,0
0.326,0.01,-0.04,0.24,0.01,0.01,0
0.327,0.01,-0.04,0.24,0.01,0.01,0
0.327,0.01,-0.04,0.24,0.01,0.01,0
0.327,0.01,-0.04,0.24,0.01,0.01,0
0.327,0.01,0.05,0.22,0.01,0.01,0
0.327,0.01,0.05,0.22,0.01,0.01,0
0.328,0.01,0.05,0.22,0.01,0.01,0
0.328,0.01,0.05,0.22,0.01,0.01,0
0.328,0.01,0.05,0.22,0.01,0.01,0
0.336,0.01,0.05,0.22,0,0.01,0
0.337,0.01,0.05,0.22,0,0.01,0
0.337,0,0.04,0.2,0,0.01,0
0.337,0,0.04,0.2,0,0.01,0
0.337,0,0.04,0.2,0,0.01,0
0.338,0,0.04,0.2,0,0.01,0
0.34,0,0.04,0.2,0,0.01,0
0.343,0,0.04,0.2,0,0.01,0
0.343,0,0.07,0.2,0,0.01,0
0.343,0,0.07,0.2,0,0.01,0
0.345,0,0.07,0.2,0,0,0
0.349,0,0.07,0.2,0,0,0
0.35,0,0.07,0.2,0,0,0
0.366,0,0.07,0.2,0,0,0
0.367,0,0.07,0.2,-0.01,0,0
0.367,0,0.07,0.2,-0.01,0,0
0.367,0,0.07,0.2,-0.01,-0.01,0
0.367,0,0.07,0.2,-0.01,-0.01,0
0.368,0,0.07,0.2,-0.01,-0.01,0
0.368,0,0.07,0.2,-0.01,-0.01,0
0.368,0,0.07,0.2,-0.01,-0.01,0
0.368,0.01,0,0.17,-0.01,-0.01,0
0.368,0.01,0,0.17,-0.01,-0.01,0
0.369,0.01,0,0.17,-0.01,-0.01,0
0.37,0.01,0,0.17,-0.01,-0.01,0
0.374,0.01,0,0.17,-0.01,-0.01,0
0.374,0.02,-0.07,0.18,-0.01,-0.01,0
0.375,0.02,-0.07,0.18,-0.01,-0.01,0
0.375,0.02,-0.07,0.18,-0.01,-0.01,0
0.379,0.02,-0.07,0.18,-0.01,-0.01,0
0.379,0.02,-0.07,0.18,-0.01,-0.01,0
0.382,0.02,-0.07,0.18,-0.01,-0.01,0
0.383,0,-0.1,0.19,-0.01,-0.01,0
0.383,0,-0.1,0.19,0,-0.01,0
0.386,0,-0.1,0.19,0,-0.01,0
0.388,0,-0.1,0.19,0,-0.01,0
0.389,0,-0.1,0.19,0,-0.01,0
0.404,0,-0.1,0.19,0,-0.01,0
0.405,0,-0.1,0.19,0,0,0
0.405,0,-0.1,0.19,0,0,0
0.405,0,-0.1,0.19,0,0,0
0.406,0,-0.1,0.19,0.01,0,0
0.406,0,-0.1,0.19,0,0,0
0.406,0,-0.1,0.19,0,0,0
0.406,0.05,-0.03,0.21,0,0,0
0.406,0.05,-0.03,0.21,0,0,0
0.407,0.05,-0.03,0.21,0,0.01,0
0.407,0.05,-0.03,0.21,0.01,0.01,0
0.41,0.05,-0.03,0.21,0.01,0.01,0
0.412,0.05,-0.03,0.21,0.01,0.01,0
0.413,0.04,0.03,0.25,0.01,0.01,0
0.413,0.04,0.03,0.25,0.01,0.01,0
0.415,0.04,0.03,0.25,0.01,0.01,0
0.417,0.04,0.03,0.25,0.01,0.01,0
0.42,0.04,0.03,0.25,0.01,0.01,0
0.422,0.04,0.03,0.25,0.01,0.01,0
0.422,0.03,0.08,0.21,0.01,0.01,0
0.423,0.03,0.08,0.21,0.01,0.01,0
0.425,0.03,0.08,0.21,0.01,0.01,0
0.427,0.03,0.08,0.21,0,0.01,0
0.43,0.03,0.08,0.21,0,0.01,0
0.445,0.03,0.08,0.21,0,0.01,0
0.446,0.03,0.08,0.21,0,0,0
0.446,0.03,0.08,0.21,0,0,0
0.446,0.03,0.08,0.21,0,0,0
0.446,0.03,0.08,0.21,0,0,0
0.446,0.03,0.08,0.21,0,0,0
0.446,0.03,0.08,0.21,0,0,0
0.447,-0.01,0.06,0.21,0,0,0
0.45,-0.01,0.06,0.21,0,0,0
0.45,-0.01,0.06,0.21,-0.01,0,0
0.45,-0.01,0.06,0.21,0,0,0
0.45,-0.01,0.06,0.21,0,0,0
0.455,-0.01,0.06,0.21,-0.01,0,0
0.456,-0.01,0.06,0.21,-0.01,-0.01,0
0.456,0.02,0.02,0.2,-0.01,-0.01,0
0.456,0.02,0.02,0.2,-0.01,-0.01,0
0.457,0.02,0.02,0.2,0,-0.01,0
0.46,0.02,0.02,0.2,-0.01,-0.01,0
0.462,0.02,0.02,0.2,0,-0.01,0
0.463,0,-0.05,0.18,0,-0.01,0
0.463,0,-0.05,0.18,-0.01,-0.01,0
0.465,0,-0.05,0.18,-0.01,-0.01,0
0.467,0,-0.05,0.18,-0.01,-0.01,0
0.47,0,-0.05,0.18,-0.01,-0.01,0
0.484,0,-0.05,0.18,-0.01,-0.01,0
0.485,0,-0.05,0.18,0,-0.01,0
0.485,0,-0.05,0.18,0,-0.01,0
0.485,0,-0.05,0.18,0,-0.01,0
0.485,0,-0.05,0.18,0,-0.01,0
0.486,0,-0.05,0.18,0,-0.01,0
0.486,0,-0.05,0.18,0,-0.01,0
0.486,0.03,-0.12,0.17,0,-0.01,0
0.486,0.03,-0.12,0.17,0,-0.01,0
0.486,0.03,-0.12,0.17,0,-0.01,0
0.488,0.03,-0.12,0.17,0,0,0
0.489,0.03,-0.12,0.17,0,0,0
0.493,0.03,-0.12,0.17,0,0,0
0.493,0.03,-0.12,0.17,0,0,0
0.493,0.03,-0.05,0.21,0,0,0
0.496,0.03,-0.05,0.21,0,0,0
0.497,0.03,-0.05,0.21,0,0,0
0.499,0.03,-0.05,0.21,0.01,0.01,0
0.502,0.03,-0.05,0.21,0.01,0,0
0.503,0.03,0.02,0.22,0.01,0,0
0.503,0.03,0.02,0.22,0.01,0.01,0
0.505,0.03,0.02,0.22,0,0.01,0
0.507,0.03,0.02,0.22,0,0.01,0
0.51,0.03,0.02,0.22,0.01,0.01,0
0.524,0.03,0.02,0.22,0.01,0.01,0
0.525,0.03,0.02,0.22,0.01,0.01,0
0.525,0.03,0.02,0.22,0.01,0.01,0
0.525,0.03,0.02,0.22,0.01,0.01,0
0.525,0.03,0.02,0.22,0.01,0.01,0
0.525,0.03,0.02,0.22,0.01,0.01,0
0.526,0.03,0.02,0.22,0.01,0.01,0
0.526,0,0.08,0.23,0.01,0.01,0
0.526,0,0.08,0.23,0.01,0.01,0
0.526,0,0.08,0.23,0.01,0.01,0
0.526,0,0.08,0.23,0.01,0.01,0
0.527,0,0.08,0.23,0,0.01,0
0.532,0,0.08,0.23,0,0.01,0
0.533,0,0.08,0.23,0,0,0
0.533,0,0.09,0.17,0,0,0
0.534,0,0.09,0.17,0,0,0
0.535,0,0.09,0.17,0,0,0
0.538,0,0.09,0.17,0,0,0
0.539,0,0.09,0.17,0,0,0
0.542,0,0.09,0.17,0,0,0
0.543,-0.01,0.06,0.21,0,0,0
0.543,-0.01,0.06,0.21,0,0,0
0.546,-0.01,0.06,0.21,0,0,0
0.55,-0.01,0.06,0.21,-0.01,-0.01,0
0.55,-0.01,0.06,0.21,0,0,0
0.565,-0.01,0.06,0.21,-0.01,-0.01,0
0.566,-0.01,0.06,0.21,-0.01,-0.01,0
0.566,-0.01,0.06,0.21,-0.01,-0.01,0
0.566,-0.01,0.06,0.21,-0.01,-0.01,0
0.566,-0.01,0.06,0.21,-0.01,-0.01,0
0.567,-0.01,0.06,0.21,-0.01,-0.01,0
0.567,-0.01,0.06,0.21,-0.01,-0.01,0
0.567,-0.01,-0.04,0.18,-0.01,-0.01,0
0.567,-0.01,-0.04,0.18,-0.01,-0.01,0
0.567,-0.01,-0.04,0.18,-0.01,-0.01,0
0.568,-0.01,-0.04,0.18,-0.01,-0.01,0
0.568,-0.01,-0.04,0.18,-0.01,-0.01,0
0.569,-0.01,-0.04,0.18,0,-0.01,0
0.573,-0.01,-0.04,0.18,0,-0.01,0
0.573,0.01,-0.07,0.17,0,-0.01,0
0.573,0.01,-0.07,0.17,0,-0.01,0
0.575,0.01,-0.07,0.17,-0.01,-0.01,0
0.577,0.01,-0.07,0.17,0,0,0
0.58,0.01,-0.07,0.17,0,-0.01,0
0.583,0.01,-0.07,0.17,0,0,0
0.584,0.02,-0.07,0.2,0,0,0
0.584,0.02,-0.07,0.2,0,-0.01,0
0.585,0.02,-0.07,0.2,0,0,0
0.587,0.02,-0.07,0.2,0,0,0
0.589,0.02,-0.07,0.2,0,0,0
0.605,0.02,-0.07,0.2,0,0,0
0.605,0.02,-0.07,0.2,0.01,0.01,0
0.606,0.02,-0.07,0.2,0.01,0.01,0
0.606,0.02,-0.07,0.2,0.01,0.01,0
0.606,0.02,-0.07,0.2,0.01,0.01,0
0.606,0.02,-0.07,0.2,0.01,0.01,0
0.606,0.02,-0.07,0.2,0,0.01,0
0.607,0.04,0.02,0.17,0,0.01,0
0.607,0.04,0.02,0.17,0,0.01,0
0.607,0.04,0.02,0.17,0.01,0.01,0
0.611,0.04,0.02,0.17,0,0.01,0
0.611,0.04,0.02,0.17,0.01,0.01,0
0.617,0.04,0.02,0.17,0.01,0.01,0
0.618,0.04,0.02,0.17,0.01,0.01,0
0.618,0.03,0.06,0.17,0.01,0.01,0
0.618,0.03,0.06,0.17,0.01,0.01,0
0.618,0.03,0.06,0.17,0,0.01,0
0.619,0.03,0.06,0.17,0,0.01,0
0.623,0.03,0.06,0.17,0,0.01,0
0.623,-0.01,0.06,0.2,0,0.01,0
0.623,-0.01,0.06,0.2,0.01,0.01,0
0.625,-0.01,0.06,0.2,0,0.01,0
0.627,-0.01,0.06,0.2,0,0.01,0
0.631,-0.01,0.06,0.2,0.01,0.01,0
0.649,-0.01,0.06,0.2,0,0,0
0.649,-0.01,0.06,0.2,0,0,0
0.649,-0.01,0.06,0.2,0,0,0
0.65,-0.01,0.06,0.2,0,0,0
0.65,-0.01,0.06,0.2,0,0,0
0.65,-0.01,0.06,0.2,0,0,0
0.65,-0.01,0.06,0.2,0,0,0
0.65,-0.01,0.06,0.2,-0.01,0,0
0.65,0,0.06,0.2,-0.01,0,0
0.651,0,0.06,0.2,-0.01,0,0
0.651,0,0.06,0.2,-0.01,-0.01,0
0.651,0,0.06,0.2,-0.01,0,0
0.653,0,0.06,0.2,-0.01,-0.01,0
0.653,-0.02,-0.01,0.22,-0.01,-0.01,0
0.654,-0.02,-0.01,0.22,-0.01,-0.01,0
0.655,-0.02,-0.01,0.22,0,-0.01,0
0.657,-0.02,-0.01,0.22,-0.01,-0.01,0
0.659,-0.02,-0.01,0.22,-0.01,-0.01,0
0.663,-0.02,-0.01,0.22,-0.01,-0.01,0
0.663,-0.03,-0.08,0.21,-0.01,-0.01,0
0.664,-0.03,-0.08,0.21,-0.01,-0.01,0
0.665,-0.03,-0.08,0.21,-0.01,-0.01,0
0.667,-0.03,-0.08,0.21,-0.01,-0.01,0
0.67,-0.03,-0.08,0.21,0,-0.01,0
0.688,-0.03,-0.08,0.21,-0.01,-0.01,0
0.689,-0.03,-0.08,0.21,0,0,0
0.689,-0.03,-0.08,0.21,0,0,0
0.689,-0.03,-0.08,0.21,0,0,0
0.689,-0.03,-0.08,0.21,0,0,0
0.689,-0.03,-0.08,0.21,0,0,0
0.69,-0.03,-0.08,0.21,0,0,0
0.69,-0.03,-0.08,0.21,0,0,0
0.69,0.05,-0.01,0.25,0,0,0
0.69,0.05,-0.01,0.25,0,0,0
0.691,0.05,-0.01,0.25,0,0,0
0.691,0.05,-0.01,0.25,0,0,0
0.691,0.05,-0.01,0.25,0,0,0
0.693,0.05,-0.01,0.25,0,0,0
0.693,0.06,0.01,0.23,0,0,0
0.693,0.06,0.01,0.23,0,0,0
0.696,0.06,0.01,0.23,0,0,0
0.7,0.06,0.01,0.23,0.01,0.01,0
0.701,0.06,0.01,0.23,0.01,0.01,0
0.702,0.06,0.01,0.23,0,0.01,0
0.703,0.04,0.03,0.18,0,0.01,0
0.703,0.04,0.03,0.18,0.01,0.01,0
0.705,0.04,0.03,0.18,0,0.01,0
0.707,0.04,0.03,0.18,0.01,0.01,0
0.71,0.04,0.03,0.18,0.01,0.01,0
0.725,0.04,0.03,0.18,0,0.01,0
0.726,0.04,0.03,0.18,0.01,0,0
0.726,0.04,0.03,0.18,0.01,0,0
0.726,0.04,0.03,0.18,0,0,0
0.727,0.04,0.03,0.18,0,0,0
0.727,0.04,0.03,0.18,0,0,0
0.727,0.04,0.03,0.18,0,-0.01,0
0.727,0.04,0.03,0.18,-0.01,-0.02,0
0.728,0,0.04,0.14,-0.01,-0.02,0
0.728,0,0.04,0.14,-0.01,-0.02,0
0.728,0,0.04,0.14,-0.02,-0.03,0
0.736,0,0.04,0.14,-0.02,-0.04,0
0.736,0,0.04,0.14,-0.02,-0.05,0
0.736,-0.05,0.05,0.06,-0.02,-0.05,0
0.737,-0.05,0.05,0.06,-0.03,-0.06,0
0.737,-0.05,0.05,0.06,-0.04,-0.08,0
0.739,-0.05,0.05,0.06,-0.05,-0.09,0
0.74,-0.05,0.05,0.06,-0.05,-0.09,0
0.743,-0.05,0.05,0.06,-0.05,-0.11,0
0.743,-0.03,0.03,0.15,-0.05,-0.11,0
0.744,-0.03,0.03,0.15,-0.05,-0.11,0
0.745,-0.03,0.03,0.15,-0.05,-0.1,0
0.749,-0.03,0.03,0.15,-0.05,-0.11,0
0.75,-0.03,0.03,0.15,-0.06,-0.1,0
0.766,-0.03,0.03,0.15,-0.05,-0.1,0
0.768,-0.03,0.03,0.15,0.02,0,0
0.768,-0.03,0.03,0.15,0.02,0,0
0.768,-0.03,0.03,0.15,0.02,0,0
0.769,-0.03,0.03,0.15,0.02,0.02,0
0.769,-0.03,0.03,0.15,0,0.02,0
0.769,-0.03,0.03,0.15,0,0.02,0
0.769,0.07,-0.02,-0.13,0,0.02,0
0.77,0.06,-0.02,-0.13,0,0.02,0
0.77,0.06,-0.02,-0.13,0,0.01,0
0.77,0.06,-0.02,-0.13,0,0,0
0.77,0.06,-0.02,-0.13,0,-0.01,0
0.772,0.06,-0.02,-0.13,-0.01,-0.02,0
0.776,0.03,-0.01,0.08,-0.01,-0.02,0
0.776,0.03,-0.01,0.08,-0.01,0,0
0.776,0.03,-0.01,0.08,0,0,0
0.778,0.03,-0.01,0.08,0.01,0.01,0
0.779,0.03,-0.01,0.08,0.01,0.01,0
0.785,0.03,-0.01,0.08,0,0,0
0.785,0,0.01,0.19,0,0,0
0.786,0,0.01,0.19,0,-0.01,0
0.786,0,0.01,0.19,0,-0.01,0
0.788,0,0.01,0.19,0,0,0
0.789,0,0.01,0.19,0.01,0.01,0
0.806,0,0.01,0.19,0.01,0.02,0
0.807,0,0.01,0.19,0.02,0.03,0
0.807,0,0.01,0.19,0.02,0.04,0
0.808,0,0.01,0.19,0.02,0.04,0
0.808,0,0.01,0.19,0.02,0.04,0
0.808,0,0.01,0.19,0.02,0.04,0
0.808,0,0.01,0.19,0.02,0.04,0
0.808,0,0.01,0.19,0.02,0.04,0
0.809,0.09,-0.04,0.17,0.02,0.04,0
0.809,0.09,-0.04,0.17,0.02,0.04,0
0.809,0.1,-0.04,0.17,0.02,0.04,0
0.81,0.1,-0.04,0.17,0.02,0.05,0
0.81,0.1,-0.04,0.17,0.03,0.05,0
0.813,0.1,-0.04,0.17,0.03,0.05,0
0.814,0.06,-0.02,0.17,0.03,0.05,0
0.816,0.06,-0.02,0.17,0.02,0.06,0
0.816,0.06,-0.02,0.17,0.03,0.06,0
0.818,0.06,-0.02,0.17,0.03,0.05,0
0.819,0.06,-0.02,0.17,0.03,0.05,0
0.823,0.06,-0.02,0.17,0.03,0.06,0
0.823,0.02,0.02,0.13,0.03,0.06,0
0.823,0.02,0.02,0.13,0.03,0.05,0
0.826,0.02,0.02,0.13,0.02,0.05,0
0.828,0.02,0.02,0.13,0.02,0.05,0
0.835,0.02,0.02,0.13,0.02,0.04,0
0.848,0.02,0.02,0.13,0.02,0.04,0
0.849,0.02,0.02,0.13,0,0,0
0.849,0.02,0.02,0.13,0,0,0
0.849,0.02,0.02,0.13,0,0,0
0.849,0.02,0.02,0.13,0,-0.01,0
0.849,0.02,0.02,0.13,-0.01,-0.01,0
0.849,0.02,0.02,0.13,-0.01,-0.01,0
0.85,0.02,0.02,0.13,-0.01,-0.02,0
0.85,0.02,0.02,0.13,-0.02,-0.03,0
0.85,-0.07,0.02,0.07,-0.02,-0.03,0
0.85,-0.06,0.02,0.07,-0.02,-0.03,0
0.851,-0.06,0.02,0.07,-0.02,-0.04,0
0.853,-0.06,0.02,0.07,-0.02,-0.05,0
0.854,-0.06,0.02,0.07,-0.03,-0.06,0
0.854,-0.06,-0.02,0.15,-0.03,-0.06,0
0.856,-0.06,-0.02,0.15,-0.03,-0.06,0
0.858,-0.06,-0.02,0.15,-0.03,-0.06,0
0.859,-0.06,-0.02,0.15,-0.03,-0.07,0
0.863,-0.06,-0.02,0.15,-0.03,-0.07,0
0.864,-0.06,-0.04,0.22,-0.03,-0.07,0
0.865,-0.06,-0.04,0.22,-0.04,-0.08,0
0.866,-0.06,-0.04,0.22,-0.04,-0.09,0
0.868,-0.06,-0.04,0.22,-0.05,-0.09,0
0.87,-0.06,-0.04,0.22,-0.05,-0.09,0
0.887,-0.06,-0.04,0.22,-0.05,-0.09,0
0.887,-0.06,-0.04,0.22,-0.01,0,0
0.887,-0.06,-0.04,0.22,-0.01,0,0
0.888,-0.06,-0.04,0.22,-0.01,0,0
0.888,-0.06,-0.04,0.22,-0.01,0,0
0.888,-0.06,-0.04,0.22,0,-0.01,0
0.888,-0.06,-0.04,0.22,0,-0.01,0
0.888,-0.06,-0.04,0.22,0,-0.01,0
0.889,-0.02,-0.01,0.32,0,-0.01,0
0.889,-0.03,-0.01,0.32,0,-0.01,0
0.889,-0.03,-0.01,0.32,-0.01,-0.02,0
0.891,-0.03,-0.01,0.32,-0.01,-0.02,0
0.893,-0.03,-0.01,0.32,0,-0.02,0
0.893,-0.03,-0.01,0.32,0,-0.01,0
0.894,0.03,0.01,0.29,0,-0.01,0
0.897,0.03,0.01,0.29,0,-0.01,0
0.898,0.03,0.01,0.29,0,-0.01,0
0.9,0.03,0.01,0.29,-0.01,-0.02,0
0.903,0.03,0.01,0.29,-0.01,-0.02,0
0.904,0.03,0.01,0.29,-0.01,-0.02,0
0.904,0.03,0.04,0.21,-0.01,-0.02,0
0.905,0.03,0.04,0.21,-0.01,-0.02,0
0.907,0.03,0.04,0.21,0,-0.02,0
0.909,0.03,0.04,0.21,0,-0.02,0
0.925,0.03,0.04,0.21,-0.01,-0.03,0
0.925,0.03,0.04,0.21,-0.01,-0.02,0
0.926,0.03,0.04,0.21,-0.01,-0.02,0
0.926,0.03,0.04,0.21,-0.01,-0.02,0
0.926,0.03,0.04,0.21,-0.01,-0.02,0
0.927,0.03,0.04,0.21,-0.01,-0.03,0
0.927,0.03,0.04,0.21,-0.01,-0.03,0
0.928,0.05,0.05,0.19,-0.01,-0.03,0
0.928,0.05,0.05,0.19,-0.01,-0.03,0
0.928,0.04,0.05,0.19,-0.01,-0.03,0
0.929,0.04,0.05,0.19,-0.01,-0.02,0
0.929,0.04,0.05,0.19,-0.01,-0.02,0
0.93,0.04,0.05,0.19,-0.01,-0.03,0
0.936,0.04,0.05,0.19,-0.01,-0.03,0
0.936,0.02,0,0.25,-0.01,-0.03,0
0.937,0.02,0,0.25,-0.01,-0.03,0
0.939,0.02,0,0.25,-0.01,-0.03,0
0.939,0.02,0,0.25,-0.01,-0.03,-0.01
0.939,0.02,0,0.25,-0.01,-0.03,0
0.944,0.02,0,0.25,-0.01,-0.03,0
0.945,0.04,-0.01,0.23,-0.01,-0.03,0
0.947,0.04,-0.01,0.23,-0.01,-0.03,0
0.947,0.04,-0.01,0.23,-0.01,-0.03,0
0.948,0.04,-0.01,0.23,-0.01,-0.03,-0.02
0.95,0.04,-0.01,0.23,-0.03,-0.04,-0.06
0.964,0.04,-0.01,0.23,-0.03,-0.04,-0.09
0.965,0.04,-0.01,0.23,-0.1,-0.02,-0.28
0.966,0.04,-0.01,0.23,-0.11,-0.02,-0.29
0.966,0.04,-0.01,0.23,-0.11,-0.02,-0.29
0.966,0.04,-0.01,0.23,-0.11,-0.02,-0.29
0.966,0.04,-0.01,0.23,-0.12,-0.02,-0.3
0.967,0.04,-0.01,0.23,-0.12,-0.03,-0.31
0.967,0.11,-0.32,0.11,-0.12,-0.03,-0.31
0.967,0.1,-0.3,0.11,-0.12,-0.03,-0.31
0.968,0.1,-0.3,0.11,-0.12,-0.03,-0.32
0.968,0.1,-0.3,0.11,-0.12,-0.01,-0.32
0.97,0.1,-0.3,0.11,-0.08,-0.01,-0.31
0.973,0.1,-0.3,0.11,-0.04,-0.04,-0.28
0.973,-1.6,0.26,0.91,-0.04,-0.04,-0.28
0.973,-1.6,0.26,0.91,-0.02,-0.06,-0.27
0.975,-1.6,0.26,0.91,0.02,-0.07,-0.25
0.977,-1.6,0.26,0.91,0.02,-0.08,-0.26
0.98,-1.6,0.26,0.91,0.02,-0.07,-0.26
0.984,-1.6,0.26,0.91,0.01,-0.06,-0.27
0.984,0.11,-0.05,0,0.01,-0.06,-0.27
0.985,0.11,-0.05,0,-0.01,-0.06,-0.26
0.986,0.11,-0.05,0,-0.04,-0.04,-0.25
0.987,0.11,-0.05,0,-0.06,-0.03,-0.23
0.989,0.11,-0.05,0,-0.07,-0.03,-0.22
1.005,0.11,-0.05,0,-0.06,-0.04,-0.21
1.006,0.11,-0.05,0,0.02,-0.12,-0.2
1.006,0.11,-0.05,0,0.02,-0.12,-0.2
1.006,0.11,-0.05,0,0.02,-0.12,-0.2
1.007,0.11,-0.05,0,0.02,-0.13,-0.2
1.007,0.11,-0.05,0,0.02,-0.13,-0.2
1.007,0.11,-0.05,0,0.02,-0.13,-0.2
1.007,0.07,-0.04,0.35,0.02,-0.13,-0.2
1.007,0.06,-0.03,0.35,0.02,-0.13,-0.2
1.008,0.06,-0.03,0.35,0.01,-0.1,-0.19
1.009,0.06,-0.03,0.35,-0.04,-0.06,-0.19
1.009,0.06,-0.03,0.35,-0.07,-0.03,-0.19
1.013,0.06,-0.03,0.35,-0.08,-0.03,-0.19
1.014,0.06,-0.03,0.35,-0.08,-0.03,-0.2
1.015,-0.11,0.04,0.26,-0.08,-0.03,-0.2
1.015,-0.11,0.04,0.26,-0.08,-0.05,-0.2
1.017,-0.11,0.04,0.26,-0.08,-0.05,-0.2
1.019,-0.11,0.04,0.26,-0.08,-0.05,-0.21
1.023,-0.11,0.04,0.26,-0.09,-0.04,-0.22
1.023,-0.07,-0.03,0.11,-0.09,-0.04,-0.22
1.024,-0.07,-0.03,0.11,-0.09,-0.03,-0.21
1.025,-0.07,-0.03,0.11,-0.1,-0.03,-0.21
1.027,-0.07,-0.03,0.11,-0.1,-0.03,-0.19
1.03,-0.07,-0.03,0.11,-0.09,-0.03,-0.16
1.045,-0.07,-0.03,0.11,-0.07,-0.04,-0.12
1.045,-0.07,-0.03,0.11,0.02,-0.08,0.11
1.046,-0.07,-0.03,0.11,0.03,-0.08,0.14
1.046,-0.07,-0.03,0.11,0.03,-0.07,0.16
1.046,-0.07,-0.03,0.11,0.03,-0.07,0.16
1.047,-0.07,-0.03,0.11,0.03,-0.07,0.16
1.047,-0.07,-0.03,0.11,0.03,-0.07,0.16
1.047,-0.15,0.62,0.11,0.03,-0.07,0.16
1.047,-0.16,0.62,0.12,0.03,-0.07,0.16
1.048,-0.16,0.62,0.12,0.03,-0.07,0.16
1.048,-0.16,0.62,0.12,0.03,-0.06,0.19
1.048,-0.16,0.62,0.12,0.02,-0.06,0.2
1.054,-0.16,0.62,0.12,0,-0.05,0.2
1.054,-0.16,0.62,0.12,-0.03,-0.04,0.18
1.055,0.85,0.57,0.14,-0.03,-0.04,0.18
1.055,0.85,0.57,0.14,-0.07,-0.01,0.15
1.055,0.85,0.57,0.14,-0.08,0,0.14
1.058,0.85,0.57,0.14,-0.11,0.01,0.13
1.059,0.85,0.57,0.14,-0.12,0.01,0.13
1.064,0.85,0.57,0.14,-0.13,0,0.13
1.065,0.05,0,0.6,-0.13,0,0.13
1.065,0.05,0,0.6,-0.13,-0.03,0.12
1.065,0.05,0,0.6,-0.13,-0.06,0.12
1.067,0.05,0,0.6,-0.11,-0.1,0.12
1.069,0.05,0,0.6,-0.11,-0.11,0.12
1.084,0.05,0,0.6,-0.09,-0.14,0.11
1.085,0.05,0,0.6,-0.05,-0.19,0.06
1.085,0.05,0,0.6,-0.05,-0.19,0.06
1.085,0.05,0,0.6,-0.05,-0.19,0.06
1.086,0.05,0,0.6,-0.04,-0.2,0.05
1.086,0.05,0,0.6,-0.04,-0.2,0.05
1.086,0.05,0,0.6,-0.04,-0.2,0.04
1.086,-0.1,-0.21,0.28,-0.04,-0.2,0.04
1.087,-0.13,-0.2,0.28,-0.04,-0.2,0.04
1.087,-0.13,-0.2,0.28,-0.03,-0.2,0.03
1.087,-0.13,-0.2,0.28,-0.03,-0.21,0.02
1.089,-0.13,-0.2,0.28,-0.02,-0.23,0
1.092,-0.13,-0.2,0.28,-0.02,-0.24,-0.01
1.093,-0.19,-0.2,0.46,-0.02,-0.24,-0.01
1.093,-0.19,-0.2,0.46,-0.02,-0.25,-0.02
1.095,-0.19,-0.2,0.46,-0.01,-0.25,-0.02
1.097,-0.19,-0.2,0.46,-0.03,-0.25,-0.01
1.099,-0.19,-0.2,0.46,-0.03,-0.25,0
1.103,-0.19,-0.2,0.46,-0.04,-0.24,0.01
1.103,-0.01,0.27,0.11,-0.04,-0.24,0.01
1.103,-0.01,0.27,0.11,-0.06,-0.21,0.04
1.106,-0.01,0.27,0.11,-0.08,-0.21,0.05
1.107,-0.01,0.27,0.11,-0.09,-0.21,0.07
1.109,-0.01,0.27,0.11,-0.11,-0.21,0.09
1.124,-0.01,0.27,0.11,-0.12,-0.24,0.11
1.124,-0.01,0.27,0.11,-0.08,-0.36,0.17
1.125,-0.01,0.27,0.11,-0.08,-0.36,0.17
1.125,-0.01,0.27,0.11,-0.08,-0.36,0.17
1.125,-0.01,0.27,0.11,-0.07,-0.39,0.19
1.125,-0.01,0.27,0.11,-0.06,-0.45,0.2
1.125,-0.01,0.27,0.11,-0.06,-0.45,0.2
1.126,-0.39,0.57,0.97,-0.06,-0.45,0.2
1.126,-0.45,0.59,0.97,-0.06,-0.45,0.2
1.126,-0.48,0.6,0.97,-0.06,-0.45,0.2
1.126,-0.48,0.6,0.97,-0.03,-0.59,0.22
1.128,-0.48,0.6,0.97,-0.01,-0.67,0.23
1.133,-0.48,0.6,0.97,0.01,-0.82,0.25
1.134,-0.48,0.6,0.97,0.02,-0.97,0.28
1.134,-0.93,0.85,2.47,0.02,-0.97,0.28
1.134,-0.93,0.85,2.47,0.02,-1.09,0.29
1.137,-0.93,0.85,2.47,0.01,-1.14,0.3
1.14,-0.93,0.85,2.47,-0.01,-1.24,0.33
1.14,-0.93,0.85,2.47,-0.02,-1.34,0.36
1.143,-0.93,0.85,2.47,-0.03,-1.46,0.39
1.143,-0.71,1.07,2.23,-0.03,-1.46,0.39
1.144,-0.71,1.07,2.23,-0.03,-1.53,0.4
1.145,-0.71,1.07,2.23,-0.02,-1.64,0.43
1.147,-0.71,1.07,2.23,-0.02,-1.74,0.46
1.149,-0.71,1.07,2.23,-0.02,-1.78,0.48
1.166,-0.71,1.07,2.23,-0.03,-1.86,0.53
1.166,-0.71,1.07,2.23,-0.01,-2.19,0.64
1.167,-0.71,1.07,2.23,-0.01,-2.2,0.64
1.167,-0.71,1.07,2.23,-0.01,-2.21,0.65
1.167,-0.71,1.07,2.23,-0.01,-2.21,0.65
1.167,-0.71,1.07,2.23,-0.01,-2.21,0.65
1.168,-0.71,1.07,2.23,-0.01,-2.21,0.65
1.168,0.55,1.24,0.88,-0.01,-2.21,0.65
1.169,0.37,1.24,0.89,-0.01,-2.21,0.65
1.169,0.16,1.25,0.92,-0.01,-2.21,0.65
1.17,0.16,1.25,0.92,-0.02,-2.21,0.65
1.17,0.16,1.25,0.92,-0.05,-2.14,0.67
1.17,0.16,1.25,0.92,-0.06,-2.09,0.67
1.173,0.16,1.25,0.92,-0.07,-2.04,0.67
1.174,0.16,1.25,0.92,-0.09,-1.91,0.65
1.174,0.96,1.01,-1.43,-0.09,-1.91,0.65
1.176,0.96,1.01,-1.43,-0.11,-1.76,0.62
1.177,0.96,1.01,-1.43,-0.12,-1.62,0.58
1.18,0.96,1.01,-1.43,-0.11,-1.55,0.56
1.183,0.96,1.01,-1.43,-0.1,-1.42,0.51
1.183,1.19,0.76,-2.28,-0.1,-1.42,0.51
1.184,1.19,0.76,-2.28,-0.09,-1.29,0.45
1.185,1.19,0.76,-2.28,-0.07,-1.15,0.39
1.188,1.19,0.76,-2.28,-0.07,-1.08,0.35
1.19,1.19,0.76,-2.28,-0.07,-0.93,0.28
1.204,1.19,0.76,-2.28,-0.08,-0.79,0.21
1.205,1.19,0.76,-2.28,-0.09,-0.38,0.07
1.205,1.19,0.76,-2.28,-0.09,-0.38,0.07
1.206,1.19,0.76,-2.28,-0.09,-0.38,0.07
1.206,1.19,0.76,-2.28,-0.09,-0.38,0.07
1.206,1.19,0.76,-2.28,-0.08,-0.36,0.06
1.206,1.19,0.76,-2.28,-0.08,-0.34,0.05
1.207,0.44,-0.9,-0.66,-0.08,-0.34,0.05
1.207,0.33,-0.88,-0.64,-0.08,-0.34,0.05
1.207,0.33,-0.88,-0.64,-0.08,-0.31,0.03
1.207,0.33,-0.88,-0.64,-0.07,-0.3,0.02
1.209,0.33,-0.88,-0.64,-0.07,-0.3,0.02
1.214,0.33,-0.88,-0.64,-0.06,-0.29,0.02
1.214,0.33,-0.88,-0.64,-0.05,-0.29,0.02
1.214,-0.37,-0.57,0.13,-0.05,-0.29,0.02
1.216,-0.37,-0.57,0.13,-0.05,-0.29,0.03
1.218,-0.37,-0.57,0.13,-0.04,-0.3,0.04
1.22,-0.37,-0.57,0.13,-0.04,-0.31,0.07
1.222,-0.37,-0.57,0.13,-0.04,-0.32,0.1
1.223,-1.05,0.14,0.61,-0.04,-0.32,0.1
1.224,-1.05,0.14,0.61,-0.03,-0.33,0.12
1.225,-1.05,0.14,0.61,-0.02,-0.37,0.15
1.228,-1.05,0.14,0.61,-0.02,-0.43,0.2
1.234,-1.05,0.14,0.61,0,-0.5,0.26
1.248,-1.05,0.14,0.61,0,-0.55,0.28
1.249,-1.05,0.14,0.61,0.08,-1.18,0.41
1.249,-1.05,0.14,0.61,0.08,-1.28,0.43
1.249,-1.05,0.14,0.61,0.08,-1.28,0.43
1.249,-1.05,0.14,0.61,0.08,-1.36,0.46
1.25,-1.05,0.14,0.61,0.08,-1.36,0.46
1.25,-1.05,0.14,0.61,0.08,-1.45,0.48
1.25,-1.33,1.07,3.38,0.08,-1.45,0.48
1.25,-1.51,1.08,3.41,0.08,-1.45,0.48
1.25,-1.64,1.08,3.44,0.08,-1.45,0.48
1.251,-1.64,1.08,3.44,0.08,-1.53,0.51
1.251,-1.64,1.08,3.44,0.08,-1.69,0.57
1.251,-1.64,1.08,3.44,0.07,-1.84,0.63
1.253,-1.64,1.08,3.44,0.07,-1.99,0.7
1.253,-1.28,2.05,2.85,0.07,-1.99,0.7
1.254,-1.28,2.05,2.85,0.07,-2.05,0.73
1.256,-1.28,2.05,2.85,0.09,-2.16,0.8
1.257,-1.28,2.05,2.85,0.1,-2.26,0.86
1.26,-1.28,2.05,2.85,0.1,-2.29,0.88
1.264,-1.28,2.05,2.85,0.11,-2.36,0.92
1.268,-0.92,2.37,1.37,0.11,-2.36,0.92
1.268,-0.92,2.37,1.37,0.11,-2.39,0.96
1.268,-0.92,2.37,1.37,0.11,-2.42,0.98
1.269,-0.92,2.37,1.37,0.1,-2.44,0.98
1.27,-0.92,2.37,1.37,0.09,-2.45,0.98
1.286,-0.92,2.37,1.37,0.08,-2.45,0.97
1.287,-0.92,2.37,1.37,0.08,-2.6,1.15
1.287,-0.92,2.37,1.37,0.09,-2.61,1.16
1.287,-0.92,2.37,1.37,0.1,-2.61,1.19
1.288,-0.92,2.37,1.37,0.1,-2.61,1.19
1.288,-0.92,2.37,1.37,0.1,-2.61,1.19
1.288,-0.92,2.37,1.37,0.09,-2.63,1.21
1.288,-0.92,2.37,1.37,0.09,-2.64,1.24
1.289,1.42,0.73,0.41,0.09,-2.64,1.24
1.289,1.19,0.74,0.47,0.09,-2.64,1.24
1.289,0.95,0.77,0.54,0.09,-2.64,1.24
1.289,0.95,0.77,0.54,0.1,-2.59,1.3
1.29,0.95,0.77,0.54,0.11,-2.55,1.35
1.293,0.95,0.77,0.54,0.11,-2.42,1.43
1.293,0.7,0.71,-2.46,0.11,-2.42,1.43
1.294,0.7,0.71,-2.46,0.12,-2.23,1.46
1.295,0.7,0.71,-2.46,0.13,-1.98,1.43
1.297,0.7,0.71,-2.46,0.13,-1.81,1.36
1.3,0.7,0.71,-2.46,0.14,-1.4,1.13
1.304,0.7,0.71,-2.46,0.13,-0.87,0.79
1.304,0.7,0.71,-2.46,0.11,-0.59,0.61
1.305,-3.02,-0.85,-7.8,0.11,-0.59,0.61
1.305,-3.02,-0.85,-7.8,0.06,-0.08,0.33
1.307,-3.02,-0.85,-7.8,0.02,0.31,0.15
1.31,-3.02,-0.85,-7.8,-0.03,0.61,0.04
1.325,-3.02,-0.85,-7.8,-0.05,0.74,-0.01
1.325,-3.02,-0.85,-7.8,-0.07,1.18,-0.14
1.326,-3.02,-0.85,-7.8,-0.07,1.14,-0.12
1.326,-3.02,-0.85,-7.8,-0.07,1.14,-0.12
1.326,-3.02,-0.85,-7.8,-0.07,1.14,-0.12
1.326,-3.02,-0.85,-7.8,-0.06,1.07,-0.09
1.327,-3.02,-0.85,-7.8,-0.06,1,-0.06
1.327,-0.54,-4.11,2.45,-0.06,1,-0.06
1.327,-0.37,-4.1,2.38,-0.06,1,-0.06
1.327,-0.37,-4.1,2.38,-0.07,0.91,-0.03
1.328,-0.37,-4.1,2.38,-0.05,0.72,0.03
1.335,-0.37,-4.1,2.38,-0.04,0.52,0.09
1.335,-0.37,-4.1,2.38,-0.03,0.33,0.14
1.336,-0.37,-4.1,2.38,-0.01,0.24,0.15
1.336,-0.37,-4.1,2.38,0.01,0.08,0.18
1.336,-1.44,-0.62,3.57,0.01,0.08,0.18
1.338,-1.44,-0.62,3.57,0.04,-0.05,0.21
1.339,-1.44,-0.62,3.57,0.06,-0.18,0.23
1.342,-1.44,-0.62,3.57,0.08,-0.23,0.24
1.343,-2.6,2.53,2.61,0.08,-0.23,0.24
1.345,-2.6,2.53,2.61,0.09,-0.31,0.27
1.346,-2.6,2.53,2.61,0.09,-0.37,0.3
1.348,-2.6,2.53,2.61,0.1,-0.39,0.32
1.35,-2.6,2.53,2.61,0.08,-0.42,0.35
1.365,-2.6,2.53,2.61,0.07,-0.46,0.39
1.366,-2.6,2.53,2.61,0,-0.72,0.51
1.366,-2.6,2.53,2.61,0,-0.72,0.51
1.366,-2.6,2.53,2.61,0,-0.72,0.51
1.366,-2.6,2.53,2.61,-0.03,-0.79,0.52
1.367,-2.6,2.53,2.61,-0.03,-0.79,0.53
1.367,-2.6,2.53,2.61,-0.03,-0.79,0.53
1.37,-0.71,0.2,1.99,-0.03,-0.79,0.53
1.37,-0.81,0.22,2.03,-0.03,-0.79,0.53
1.371,-0.81,0.22,2.03,-0.08,-0.84,0.54
1.371,-0.81,0.22,2.03,-0.15,-0.88,0.55
1.371,-0.81,0.22,2.03,-0.18,-0.87,0.54
1.373,-0.81,0.22,2.03,-0.26,-0.84,0.54
1.373,-0.53,0.85,0.25,-0.26,-0.84,0.54
1.373,-0.53,0.85,0.25,-0.36,-0.78,0.54
1.376,-0.53,0.85,0.25,-0.48,-0.65,0.53
1.377,-0.53,0.85,0.25,-0.55,-0.58,0.53
1.379,-0.53,0.85,0.25,-0.68,-0.41,0.51
1.384,-0.53,0.85,0.25,-0.8,-0.19,0.48
1.385,-0.53,0.85,0.25,-0.9,0.08,0.45
1.385,-0.51,1.17,-1.46,-0.9,0.08,0.45
1.387,-0.51,1.17,-1.46,-0.94,0.23,0.42
1.388,-0.51,1.17,-1.46,-0.98,0.57,0.35
1.39,-0.51,1.17,-1.46,-0.98,0.92,0.27
1.406,-0.51,1.17,-1.46,-0.97,1.09,0.23
1.407,-0.51,1.17,-1.46,-0.46,2.15,-0.2
1.407,-0.51,1.17,-1.46,-0.37,2.22,-0.25
1.407,-0.51,1.17,-1.46,-0.27,2.28,-0.29
1.408,-0.51,1.17,-1.46,-0.27,2.28,-0.29
1.408,-0.51,1.17,-1.46,-0.27,2.28,-0.29
1.408,-0.51,1.17,-1.46,-0.27,2.28,-0.29
1.408,-0.51,1.17,-1.46,-0.05,2.38,-0.36
1.409,2.03,-2.08,8.33,-0.05,2.38,-0.36
1.409,2.13,-1.99,8.3,-0.05,2.38,-0.36
1.409,2.33,-1.95,8.23,-0.05,2.38,-0.36
1.41,2.33,-1.95,8.23,0.07,2.42,-0.39
1.41,2.33,-1.95,8.23,0.33,2.49,-0.43
1.413,2.33,-1.95,8.23,0.6,2.53,-0.44
1.414,0.37,-0.52,11.77,0.6,2.53,-0.44
1.414,0.37,-0.52,11.77,0.87,2.56,-0.44
1.415,0.37,-0.52,11.77,1.01,2.56,-0.43
1.419,0.37,-0.52,11.77,1.27,2.55,-0.39
1.42,0.37,-0.52,11.77,1.52,2.5,-0.35
1.423,0.37,-0.52,11.77,1.67,2.53,-0.34
1.423,-2.3,0.21,13.42,1.67,2.53,-0.34
1.424,-2.3,0.21,13.42,1.82,2.3,-0.29
1.429,-2.3,0.21,13.42,1.99,1.98,-0.19
1.429,-2.3,0.21,13.42,2.25,1.87,-0.07
1.434,-2.3,0.21,13.42,2.41,1.94,-0.01
1.445,-2.3,0.21,13.42,2.76,2.19,0.08
1.446,-2.3,0.21,13.42,3.84,3.54,0.15
1.446,-2.3,0.21,13.42,3.84,3.54,0.15
1.446,-2.3,0.21,13.42,3.84,3.54,0.15
1.446,-2.3,0.21,13.42,3.91,3.68,0.11
1.447,-2.3,0.21,13.42,3.91,3.68,0.11
1.447,-2.3,0.21,13.42,3.96,3.82,0.07
1.447,-2.3,0.21,13.42,4.02,4.04,-0.04
1.447,2.03,-2.95,9.06,4.02,4.04,-0.04
1.447,2.59,-3.58,8.92,4.02,4.04,-0.04
1.452,2.59,-3.58,8.92,4.05,4.23,-0.18
1.453,2.59,-3.58,8.92,4.04,4.39,-0.32
1.454,2.59,-3.58,8.92,4.02,4.47,-0.39
1.454,2.59,-3.58,8.92,3.99,4.64,-0.52
1.455,3.23,-4.7,4.5,3.99,4.64,-0.52
1.455,3.23,-4.7,4.5,3.93,4.83,-0.62
1.457,3.23,-4.7,4.5,3.9,4.93,-0.67
1.459,3.23,-4.7,4.5,3.82,5.14,-0.76
1.462,3.23,-4.7,4.5,3.72,5.35,-0.82
1.462,2.29,-3.79,-0.25,3.72,5.35,-0.82
1.463,2.29,-3.79,-0.25,3.6,5.59,-0.88
1.467,2.29,-3.79,-0.25,3.54,5.71,-0.91
1.468,2.29,-3.79,-0.25,3.4,5.91,-0.97
1.47,2.29,-3.79,-0.25,3.26,6.08,-1.05
1.485,2.29,-3.79,-0.25,3.12,6.24,-1.12
1.486,2.29,-3.79,-0.25,2.62,6.76,-1.41
1.486,2.29,-3.79,-0.25,2.62,6.76,-1.41
1.486,2.29,-3.79,-0.25,2.62,6.76,-1.41
1.487,2.29,-3.79,-0.25,2.62,6.76,-1.41
1.487,2.29,-3.79,-0.25,2.55,6.78,-1.44
1.487,2.29,-3.79,-0.25,2.48,6.8,-1.46
1.487,0.77,-2.8,-3.24,2.48,6.8,-1.46
1.487,2.07,-3.35,-3.16,2.48,6.8,-1.46
1.488,2.74,-3.59,-3.04,2.48,6.8,-1.46
1.488,2.74,-3.59,-3.04,2.34,6.84,-1.5
1.488,2.74,-3.59,-3.04,2.27,6.85,-1.51
1.49,2.74,-3.59,-3.04,2.13,6.83,-1.53
1.492,2.74,-3.59,-3.04,1.99,6.76,-1.55
1.492,1.51,-1.82,-2.93,1.99,6.76,-1.55
1.493,1.51,-1.82,-2.93,1.88,6.73,-1.56
1.495,1.51,-1.82,-2.93,1.84,6.73,-1.57
1.498,1.51,-1.82,-2.93,1.77,6.7,-1.6
1.5,1.51,-1.82,-2.93,1.72,6.63,-1.61
1.503,1.51,-1.82,-2.93,1.71,6.57,-1.61
1.503,1.28,-1.03,-0.25,1.71,6.57,-1.61
1.504,1.28,-1.03,-0.25,1.71,6.54,-1.61
1.505,1.28,-1.03,-0.25,1.72,6.47,-1.61
1.508,1.28,-1.03,-0.25,1.76,6.36,-1.6
1.51,1.28,-1.03,-0.25,1.78,6.3,-1.59
1.525,1.28,-1.03,-0.25,1.82,6.17,-1.58
1.526,1.28,-1.03,-0.25,2.2,5.73,-1.52
1.526,1.28,-1.03,-0.25,2.26,5.69,-1.51
1.526,1.28,-1.03,-0.25,2.32,5.66,-1.5
1.527,1.28,-1.03,-0.25,2.32,5.66,-1.5
1.527,1.28,-1.03,-0.25,2.32,5.66,-1.5
1.527,1.28,-1.03,-0.25,2.32,5.66,-1.5
1.527,0.74,0.23,4.7,2.32,5.66,-1.5
1.528,1.88,-0.03,5.18,2.32,5.66,-1.5
1.528,1.88,-0.03,5.18,2.37,5.63,-1.5
1.528,1.88,-0.03,5.18,2.49,5.56,-1.49
1.53,1.88,-0.03,5.18,2.6,5.49,-1.48
1.537,1.88,-0.03,5.18,2.64,5.46,-1.48
1.537,1.88,-0.03,5.18,2.71,5.4,-1.49
1.538,2.25,-0.48,5.05,2.71,5.4,-1.49
1.538,2.25,-0.48,5.05,2.77,5.36,-1.51
1.538,2.25,-0.48,5.05,2.83,5.33,-1.54
1.541,2.25,-0.48,5.05,2.87,5.31,-1.56
1.543,2.25,-0.48,5.05,2.93,5.28,-1.59
1.543,3.82,-1.64,4.2,2.93,5.28,-1.59
1.543,3.82,-1.64,4.2,2.99,5.24,-1.64
1.545,3.82,-1.64,4.2,3.04,5.19,-1.69
1.548,3.82,-1.64,4.2,3.07,5.17,-1.72
1.552,3.82,-1.64,4.2,3.11,5.1,-1.77
1.567,3.82,-1.64,4.2,3.14,5.04,-1.83
1.568,3.82,-1.64,4.2,3.13,4.29,-1.96
1.568,3.82,-1.64,4.2,3.13,4.29,-1.96
1.568,3.82,-1.64,4.2,3.13,4.29,-1.96
1.568,3.82,-1.64,4.2,3.13,4.29,-1.96
1.569,3.82,-1.64,4.2,3.14,4.2,-1.98
1.569,3.82,-1.64,4.2,3.15,4.13,-2
1.569,2.84,-2.82,2.08,3.15,4.13,-2
1.569,3.68,-3.11,2.76,3.15,4.13,-2
1.57,3.68,-3.11,2.76,3.19,3.99,-2.05
1.57,3.68,-3.11,2.76,3.23,3.86,-2.11
1.57,3.68,-3.11,2.76,3.25,3.79,-2.14
1.574,3.68,-3.11,2.76,3.27,3.62,-2.19
1.574,3.86,-2.93,1.9,3.27,3.62,-2.19
1.574,3.86,-2.93,1.9,3.29,3.44,-2.25
1.575,3.86,-2.93,1.9,3.28,3.34,-2.28
1.577,3.86,-2.93,1.9,3.27,3.13,-2.33
1.579,3.86,-2.93,1.9,3.24,2.9,-2.38
1.585,3.86,-2.93,1.9,3.19,2.68,-2.43
1.585,3.81,-2.32,0.64,3.19,2.68,-2.43
1.586,3.81,-2.32,0.64,3.16,2.56,-2.46
1.586,3.81,-2.32,0.64,3.09,2.34,-2.51
1.587,3.81,-2.32,0.64,3.01,2.13,-2.57
1.589,3.81,-2.32,0.64,2.91,1.9,-2.61
1.605,3.81,-2.32,0.64,2.86,1.79,-2.64
1.606,3.81,-2.32,0.64,2.33,0.96,-2.8
1.606,3.81,-2.32,0.64,2.27,0.87,-2.82
1.606,3.81,-2.32,0.64,2.27,0.87,-2.82
1.606,3.81,-2.32,0.64,2.27,0.87,-2.82
1.607,3.81,-2.32,0.64,2.21,0.79,-2.83
1.607,3.81,-2.32,0.64,2.15,0.71,-2.84
1.607,4.43,-2.74,-3.36,2.15,0.71,-2.84
1.607,4.79,-2.69,-3,2.15,0.71,-2.84
1.608,4.94,-2.63,-2.86,2.15,0.71,-2.84
1.608,4.94,-2.63,-2.86,2.09,0.63,-2.86
1.608,4.94,-2.63,-2.86,1.97,0.48,-2.88
1.61,4.94,-2.63,-2.86,1.87,0.34,-2.9
1.612,4.94,-2.63,-2.86,1.77,0.2,-2.91
1.613,4.66,-2.68,-3.72,1.77,0.2,-2.91
1.614,4.66,-2.68,-3.72,1.72,0.13,-2.92
1.615,4.66,-2.68,-3.72,1.63,0.03,-2.93
1.619,4.66,-2.68,-3.72,1.55,-0.07,-2.95
1.62,4.66,-2.68,-3.72,1.53,-0.1,-2.95
1.623,4.66,-2.68,-3.72,1.49,-0.17,-2.96
1.623,4.37,-3.05,-3.53,1.49,-0.17,-2.96
1.623,4.37,-3.05,-3.53,1.45,-0.23,-2.97
1.626,4.37,-3.05,-3.53,1.37,-0.19,-3
1.627,4.37,-3.05,-3.53,1.28,-0.07,-3.02
1.63,4.37,-3.05,-3.53,1.05,0.29,-3.08
1.648,4.37,-3.05,-3.53,0.86,0.54,-3.12
1.649,4.37,-3.05,-3.53,0.58,0.71,-3.14
1.649,4.37,-3.05,-3.53,0.56,0.71,-3.13
1.649,4.37,-3.05,-3.53,0.53,0.71,-3.13
1.649,4.37,-3.05,-3.53,0.53,0.71,-3.13
1.65,4.37,-3.05,-3.53,0.53,0.71,-3.13
1.65,4.37,-3.05,-3.53,0.51,0.69,-3.12
1.65,2.86,-2.4,-3.13,0.51,0.69,-3.12
1.65,2.99,-2.22,-3.06,0.51,0.69,-3.12
1.65,3.12,-2.02,-2.99,0.51,0.69,-3.12
1.65,3.12,-2.02,-2.99,0.48,0.68,-3.11
1.651,3.12,-2.02,-2.99,0.43,0.63,-3.09
1.651,3.12,-2.02,-2.99,0.41,0.59,-3.08
1.654,3.12,-2.02,-2.99,0.36,0.47,-3.04
1.654,3.12,-2.02,-2.99,0.31,0.33,-3.01
1.654,2.3,-1.85,-2.22,0.31,0.33,-3.01
1.655,2.3,-1.85,-2.22,0.26,0.17,-2.96
1.658,2.3,-1.85,-2.22,0.24,0.08,-2.93
1.66,2.3,-1.85,-2.22,0.2,-0.09,-2.89
1.666,2.3,-1.85,-2.22,0.16,-0.27,-2.84
1.666,2.3,-1.85,-2.22,0.14,-0.36,-2.81
1.666,2.3,-1.85,-2.22,0.1,-0.54,-2.75
1.667,1.74,-1.28,-1.44,0.1,-0.54,-2.75
1.667,1.74,-1.28,-1.44,0.06,-0.72,-2.7
1.67,1.74,-1.28,-1.44,0.02,-0.88,-2.65
1.687,1.74,-1.28,-1.44,0,-0.95,-2.62
1.688,1.74,-1.28,-1.44,-0.16,-1.42,-2.35
1.688,1.74,-1.28,-1.44,-0.18,-1.45,-2.31
1.688,1.74,-1.28,-1.44,-0.18,-1.45,-2.31
1.688,1.74,-1.28,-1.44,-0.18,-1.45,-2.31
1.689,1.74,-1.28,-1.44,-0.2,-1.49,-2.27
1.689,1.74,-1.28,-1.44,-0.22,-1.52,-2.23
1.689,1.74,-1.28,-1.44,-0.24,-1.55,-2.19
1.689,1,0.06,-1.64,-0.24,-1.55,-2.19
1.69,0.97,0.45,-1.83,-0.24,-1.55,-2.19
1.69,0.97,0.45,-1.83,-0.27,-1.61,-2.1
1.69,0.97,0.45,-1.83,-0.3,-1.65,-2
1.693,0.97,0.45,-1.83,-0.33,-1.69,-1.9
1.694,0.3,0.92,-1.58,-0.33,-1.69,-1.9
1.694,0.3,0.92,-1.58,-0.33,-1.7,-1.86
1.695,0.3,0.92,-1.58,-0.36,-1.72,-1.76
1.698,0.3,0.92,-1.58,-0.38,-1.73,-1.67
1.699,0.3,0.92,-1.58,-0.41,-1.72,-1.58
1.703,0.3,0.92,-1.58,-0.42,-1.71,-1.54
1.703,0.18,1.17,-1.68,-0.42,-1.71,-1.54
1.703,0.18,1.17,-1.68,-0.45,-1.68,-1.46
1.706,0.18,1.17,-1.68,-0.48,-1.64,-1.38
1.707,0.18,1.17,-1.68,-0.5,-1.62,-1.34
1.709,0.18,1.17,-1.68,-0.53,-1.57,-1.27
1.726,0.18,1.17,-1.68,-0.56,-1.52,-1.2
1.726,0.18,1.17,-1.68,-0.67,-1.27,-0.9
1.727,0.18,1.17,-1.68,-0.67,-1.27,-0.9
1.727,0.18,1.17,-1.68,-0.69,-1.24,-0.86
1.727,0.18,1.17,-1.68,-0.7,-1.21,-0.82
1.727,0.18,1.17,-1.68,-0.7,-1.21,-0.82
1.728,0.18,1.17,-1.68,-0.7,-1.21,-0.82
1.728,0.18,1.17,-1.68,-0.72,-1.16,-0.74
1.728,0.58,1.49,-0.79,-0.72,-1.16,-0.74
1.728,0.43,1.73,-1.01,-0.72,-1.16,-0.74
1.729,0.43,1.73,-1.01,-0.74,-1.12,-0.67
1.729,0.43,1.73,-1.01,-0.74,-1.12,-0.64
1.741,0.43,1.73,-1.01,-0.74,-1.11,-0.57
1.742,0.43,1.73,-1.01,-0.74,-1.12,-0.5
1.744,1.31,1.4,0.17,-0.74,-1.12,-0.5
1.745,1.31,1.4,0.17,-0.73,-1.15,-0.44
1.746,1.31,1.4,0.17,-0.72,-1.17,-0.41
1.746,1.31,1.4,0.17,-0.7,-1.22,-0.36
1.746,1.31,1.4,0.17,-0.67,-1.29,-0.31
1.746,1.96,0.5,0.52,-0.67,-1.29,-0.31
1.746,1.96,0.5,0.52,-0.63,-1.36,-0.27
1.747,1.96,0.5,0.52,-0.61,-1.4,-0.25
1.753,1.96,0.5,0.52,-0.56,-1.48,-0.22
1.754,1.96,0.5,0.52,-0.51,-1.56,-0.2
1.767,1.96,0.5,0.52,-0.47,-1.61,-0.19
1.767,1.96,0.5,0.52,-0.07,-1.91,-0.16
1.77,1.96,0.5,0.52,-0.02,-1.94,-0.16
1.77,1.96,0.5,0.52,0.02,-1.97,-0.17
1.77,1.96,0.5,0.52,0.02,-1.97,-0.17
1.77,1.96,0.5,0.52,0.02,-1.97,-0.17
1.77,1.96,0.5,0.52,0.02,-1.97,-0.17
1.77,1.96,0.5,0.52,0.11,-2.02,-0.18
1.771,1.44,-0.14,2.21,0.11,-2.02,-0.18
1.771,1.33,-0.09,2.1,0.11,-2.02,-0.18
1.771,1.2,-0.07,1.96,0.11,-2.02,-0.18
1.771,1.2,-0.07,1.96,0.14,-2.04,-0.18
1.771,1.2,-0.07,1.96,0.21,-2.08,-0.2
1.773,1.2,-0.07,1.96,0.27,-2.12,-0.22
1.774,1.2,-0.07,1.96,0.3,-2.14,-0.23
1.774,0.87,0.13,2.41,0.3,-2.14,-0.23
1.776,0.87,0.13,2.41,0.36,-2.17,-0.25
1.778,0.87,0.13,2.41,0.42,-2.21,-0.26
1.779,0.87,0.13,2.41,0.47,-2.24,-0.27
1.783,0.87,0.13,2.41,0.51,-2.26,-0.27
1.784,0.53,0.66,3.1,0.51,-2.26,-0.27
1.784,0.53,0.66,3.1,0.58,-2.31,-0.26
1.787,0.53,0.66,3.1,0.65,-2.36,-0.24
1.788,0.53,0.66,3.1,0.74,-2.44,-0.21
1.79,0.53,0.66,3.1,0.78,-2.47,-0.2
1.805,0.53,0.66,3.1,0.88,-2.55,-0.16
1.806,0.53,0.66,3.1,1.23,-2.79,-0.06
1.806,0.53,0.66,3.1,1.27,-2.81,-0.06
1.806,0.53,0.66,3.1,1.27,-2.81,-0.05
1.806,0.53,0.66,3.1,1.3,-2.82,-0.05
1.806,0.53,0.66,3.1,1.3,-2.82,-0.05
1.807,0.53,0.66,3.1,1.34,-2.82,-0.05
1.807,2.11,0.87,2.95,1.34,-2.82,-0.05
1.807,1.7,0.71,2.64,1.34,-2.82,-0.05
1.807,1.7,0.71,2.64,1.39,-2.82,-0.05
1.807,1.7,0.71,2.64,1.46,-2.8,-0.06
1.809,1.7,0.71,2.64,1.53,-2.77,-0.07
1.813,1.7,0.71,2.64,1.57,-2.75,-0.08
1.813,1.71,0.3,2.26,1.57,-2.75,-0.08
1.814,1.71,0.3,2.26,1.65,-2.7,-0.1
1.815,1.71,0.3,2.26,1.71,-2.64,-0.12
1.818,1.71,0.3,2.26,1.75,-2.6,-0.13
1.819,1.71,0.3,2.26,1.82,-2.52,-0.16
1.822,1.71,0.3,2.26,1.89,-2.43,-0.18
1.823,1.43,-0.13,2.13,1.89,-2.43,-0.18
1.824,1.43,-0.13,2.13,1.96,-2.34,-0.2
1.825,1.43,-0.13,2.13,1.99,-2.29,-0.21
1.828,1.43,-0.13,2.13,2.06,-2.19,-0.24
1.829,1.43,-0.13,2.13,2.11,-2.1,-0.27
1.846,1.43,-0.13,2.13,2.16,-2.02,-0.31
1.846,1.43,-0.13,2.13,2.33,-1.71,-0.45
1.847,1.43,-0.13,2.13,2.33,-1.71,-0.45
1.847,1.43,-0.13,2.13,2.33,-1.71,-0.45
1.847,1.43,-0.13,2.13,2.33,-1.71,-0.45
1.847,1.43,-0.13,2.13,2.34,-1.68,-0.46
1.847,1.43,-0.13,2.13,2.35,-1.65,-0.48
1.847,1.43,-0.13,2.13,2.37,-1.6,-0.49
1.848,2.68,-0.32,2.7,2.37,-1.6,-0.49
1.848,2.39,-0.64,2.58,2.37,-1.6,-0.49
1.848,2.39,-0.64,2.58,2.37,-1.58,-0.5
1.849,2.39,-0.64,2.58,2.37,-1.55,-0.51
1.853,2.39,-0.64,2.58,2.37,-1.53,-0.51
1.854,2.18,-0.24,2.83,2.37,-1.53,-0.51
1.854,2.18,-0.24,2.83,2.36,-1.53,-0.51
1.855,2.18,-0.24,2.83,2.35,-1.53,-0.5
1.858,2.18,-0.24,2.83,2.32,-1.56,-0.49
1.859,2.18,-0.24,2.83,2.28,-1.6,-0.47
1.863,2.18,-0.24,2.83,2.26,-1.62,-0.47
1.863,1.51,-0.06,2.61,2.26,-1.62,-0.47
1.864,1.51,-0.06,2.61,2.21,-1.67,-0.44
1.866,1.51,-0.06,2.61,2.17,-1.7,-0.42
1.867,1.51,-0.06,2.61,2.11,-1.72,-0.39
1.87,1.51,-0.06,2.61,2.08,-1.72,-0.37
1.887,1.51,-0.06,2.61,2.04,-1.69,-0.34
1.888,1.51,-0.06,2.61,1.89,-1.19,-0.12
1.888,1.51,-0.06,2.61,1.89,-1.19,-0.12
1.889,1.51,-0.06,2.61,1.88,-1.11,-0.09
1.889,1.51,-0.06,2.61,1.88,-1.02,-0.06
1.889,1.51,-0.06,2.61,1.88,-1.02,-0.06
1.889,1.51,-0.06,2.61,1.88,-1.02,-0.06
1.89,1.51,-0.06,2.61,1.87,-0.94,-0.02
1.89,-0.19,0.46,1.42,1.87,-0.94,-0.02
1.89,-0.32,0.31,1.38,1.87,-0.94,-0.02
1.89,-0.42,0.15,1.37,1.87,-0.94,-0.02
1.891,-0.42,0.15,1.37,1.87,-0.76,0.04
1.891,-0.42,0.15,1.37,1.86,-0.61,0.11
1.893,-0.42,0.15,1.37,1.86,-0.54,0.14
1.893,-0.42,0.15,1.37,1.85,-0.42,0.2
1.894,-0.86,0.43,1.23,1.85,-0.42,0.2
1.895,-0.86,0.43,1.23,1.85,-0.34,0.26
1.897,-0.86,0.43,1.23,1.85,-0.29,0.32
1.9,-0.86,0.43,1.23,1.86,-0.27,0.35
1.903,-0.9,0.27,1.25,1.86,-0.27,0.35
1.904,-0.9,0.27,1.25,1.86,-0.27,0.42
1.904,-0.9,0.27,1.25,1.87,-0.31,0.48
1.906,-0.9,0.27,1.25,1.88,-0.33,0.51
1.907,-0.9,0.27,1.25,1.9,-0.4,0.58
1.91,-0.9,0.27,1.25,1.91,-0.5,0.64
1.927,-0.9,0.27,1.25,1.94,-0.6,0.69
1.927,-0.9,0.27,1.25,2.05,-1.1,0.88
1.927,-0.9,0.27,1.25,2.05,-1.1,0.88
1.928,-0.9,0.27,1.25,2.05,-1.1,0.88
1.932,-0.9,0.27,1.25,2.05,-1.1,0.88
1.932,-0.9,0.27,1.25,2.07,-1.16,0.9
1.932,-0.9,0.27,1.25,2.09,-1.22,0.92
1.932,-0.9,0.27,1.25,2.13,-1.34,0.96
1.933,-1.19,0.11,1.69,2.13,-1.34,0.96
1.933,-1.37,-0.29,1.74,2.13,-1.34,0.96
1.933,-1.37,-0.29,1.74,2.16,-1.4,0.98
1.934,-1.37,-0.29,1.74,2.2,-1.53,1.01
1.938,-1.37,-0.29,1.74,2.25,-1.64,1.04
1.939,-1.37,-0.29,1.74,2.3,-1.75,1.07
1.939,-1.37,-0.29,1.74,2.32,-1.81,1.08
1.939,-1.49,0.01,1.84,2.32,-1.81,1.08
1.939,-1.49,0.01,1.84,2.37,-1.91,1.11
1.939,-1.49,0.01,1.84,2.43,-2.12,1.15
1.943,-1.49,0.01,1.84,2.47,-2.34,1.18
1.943,-0.84,-0.04,1.47,2.47,-2.34,1.18
1.945,-0.84,-0.04,1.47,2.49,-2.43,1.19
1.947,-0.84,-0.04,1.47,2.51,-2.56,1.19
1.949,-0.84,-0.04,1.47,2.53,-2.62,1.17
1.95,-0.84,-0.04,1.47,2.54,-2.64,1.16
1.966,-0.84,-0.04,1.47,2.57,-2.65,1.15
1.966,-0.84,-0.04,1.47,2.79,-2.57,1.11
1.966,-0.84,-0.04,1.47,2.79,-2.57,1.11
1.966,-0.84,-0.04,1.47,2.84,-2.5,1.1
1.967,-0.84,-0.04,1.47,2.84,-2.5,1.1
1.967,-0.84,-0.04,1.47,2.84,-2.5,1.1
1.967,-0.84,-0.04,1.47,2.84,-2.5,1.1
1.967,-0.81,0.84,1.57,2.84,-2.5,1.1
1.967,-1.33,0.32,1.61,2.84,-2.5,1.1
1.968,-1.33,0.32,1.61,2.86,-2.47,1.09
1.968,-1.33,0.32,1.61,2.89,-2.39,1.08
1.971,-1.33,0.32,1.61,2.93,-2.33,1.07
1.973,-1.33,0.32,1.61,2.94,-2.3,1.07
1.973,-1.33,0.32,1.61,2.96,-2.27,1.06
1.974,-0.66,0.03,1.51,2.96,-2.27,1.06
1.976,-0.66,0.03,1.51,2.98,-2.27,1.06
1.978,-0.66,0.03,1.51,2.99,-2.26,1.04
1.98,-0.66,0.03,1.51,3,-2.26,1.03
1.982,-0.66,0.03,1.51,3,-2.23,1.01
1.983,-0.09,-0.43,1.48,3,-2.23,1.01
1.983,-0.09,-0.43,1.48,3,-2.21,0.99
1.986,-0.09,-0.43,1.48,3.01,-2.17,0.98
1.987,-0.09,-0.43,1.48,3.02,-2.15,0.98
1.989,-0.09,-0.43,1.48,3.03,-2.07,1.01
2.005,-0.09,-0.43,1.48,3.03,-1.99,1.03
2.006,-0.09,-0.43,1.48,3,-1.61,1.09
2.006,-0.09,-0.43,1.48,2.99,-1.58,1.1
2.006,-0.09,-0.43,1.48,2.98,-1.56,1.1
2.007,-0.09,-0.43,1.48,2.98,-1.56,1.1
2.007,-0.09,-0.43,1.48,2.98,-1.56,1.1
2.007,-0.09,-0.43,1.48,2.98,-1.56,1.1
2.007,-0.09,-0.43,1.48,2.96,-1.52,1.11
2.008,-0.27,-0.66,-0.2,2.96,-1.52,1.11
2.008,-0.66,-1.18,0.04,2.96,-1.52,1.11
2.008,-0.85,-1.43,0.19,2.96,-1.52,1.11
2.008,-0.85,-1.43,0.19,2.92,-1.49,1.11
2.01,-0.85,-1.43,0.19,2.91,-1.48,1.11
2.016,-0.85,-1.43,0.19,2.87,-1.45,1.1
2.016,-0.85,-1.43,0.19,2.84,-1.43,1.09
2.017,-0.24,-1.78,-0.4,2.84,-1.43,1.09
2.017,-0.24,-1.78,-0.4,2.82,-1.42,1.09
2.018,-0.24,-1.78,-0.4,2.78,-1.4,1.08
2.02,-0.24,-1.78,-0.4,2.73,-1.38,1.07
2.023,-0.24,-1.78,-0.4,2.69,-1.36,1.07
2.023,-0.17,-2.09,-1.13,2.69,-1.36,1.07
2.024,-0.17,-2.09,-1.13,2.67,-1.34,1.06
2.025,-0.17,-2.09,-1.13,2.62,-1.31,1.06
2.027,-0.17,-2.09,-1.13,2.57,-1.28,1.06
2.029,-0.17,-2.09,-1.13,2.52,-1.26,1.06
2.046,-0.17,-2.09,-1.13,2.5,-1.25,1.05
2.047,-0.17,-2.09,-1.13,2.28,-1.28,1.02
2.047,-0.17,-2.09,-1.13,2.26,-1.28,1.02
2.048,-0.17,-2.09,-1.13,2.26,-1.28,1.01
2.048,-0.17,-2.09,-1.13,2.26,-1.28,1.01
2.048,-0.17,-2.09,-1.13,2.24,-1.27,1
2.049,-0.17,-2.09,-1.13,2.21,-1.27,0.99
2.049,0.14,-1.03,-1.46,2.21,-1.27,0.99
2.05,-0.18,-1.4,-1.18,2.21,-1.27,0.99
2.05,-0.18,-1.4,-1.18,2.19,-1.26,0.98
2.051,-0.18,-1.4,-1.18,2.14,-1.23,0.96
2.051,-0.18,-1.4,-1.18,2.1,-1.2,0.93
2.057,-0.18,-1.4,-1.18,2.05,-1.15,0.91
2.06,-0.18,-1.4,-1.18,2.03,-1.13,0.9
2.061,-0.54,-0.91,-1.03,2.03,-1.13,0.9
2.062,-0.54,-0.91,-1.03,1.99,-1.08,0.87
2.062,-0.54,-0.91,-1.03,1.94,-1.04,0.85
2.062,-0.54,-0.91,-1.03,1.92,-1.02,0.85
2.065,-0.54,-0.91,-1.03,1.88,-1.01,0.83
2.065,-0.77,-0.8,-0.98,1.88,-1.01,0.83
2.066,-0.77,-0.8,-0.98,1.83,-1.03,0.82
2.066,-0.77,-0.8,-0.98,1.78,-1.05,0.8
2.073,-0.77,-0.8,-0.98,1.75,-1.05,0.79
2.073,-0.77,-0.8,-0.98,1.7,-1.05,0.76
2.086,-0.77,-0.8,-0.98,1.66,-1.02,0.71
2.087,-0.77,-0.8,-0.98,1.53,-0.83,0.61
2.087,-0.77,-0.8,-0.98,1.53,-0.83,0.61
2.087,-0.77,-0.8,-0.98,1.5,-0.8,0.6
2.087,-0.77,-0.8,-0.98,1.44,-0.79,0.59
2.087,-0.77,-0.8,-0.98,1.44,-0.79,0.59
2.087,-0.77,-0.8,-0.98,1.44,-0.79,0.59
2.09,-0.77,-0.8,-0.98,1.35,-0.75,0.57
2.09,-0.31,-0.92,-1.45,1.35,-0.75,0.57
2.09,-0.53,-1.14,-1.23,1.35,-0.75,0.57
2.09,-0.62,-1.24,-1.12,1.35,-0.75,0.57
2.09,-0.62,-1.24,-1.12,1.25,-0.7,0.55
2.09,-0.62,-1.24,-1.12,1.21,-0.67,0.55
2.092,-0.62,-1.24,-1.12,1.11,-0.62,0.54
2.093,-0.64,-1.96,-1.69,1.11,-0.62,0.54
2.094,-0.64,-1.96,-1.69,1.02,-0.55,0.54
2.095,-0.64,-1.96,-1.69,0.94,-0.48,0.54
2.098,-0.64,-1.96,-1.69,0.91,-0.42,0.53
2.099,-0.64,-1.96,-1.69,0.89,-0.29,0.5
2.103,-0.64,-1.96,-1.69,0.94,-0.2,0.46
2.103,-0.31,-0.83,-0.1,0.94,-0.2,0.46
2.104,-0.31,-0.83,-0.1,0.98,-0.15,0.44
2.106,-0.31,-0.83,-0.1,1.02,-0.08,0.41
2.107,-0.31,-0.83,-0.1,1.04,-0.04,0.41
2.109,-0.31,-0.83,-0.1,1.05,-0.02,0.45
2.126,-0.31,-0.83,-0.1,1.04,-0.02,0.48
2.126,-0.31,-0.83,-0.1,0.99,-0.04,0.62
2.126,-0.31,-0.83,-0.1,1.01,-0.03,0.63
2.127,-0.31,-0.83,-0.1,1.02,-0.02,0.64
2.127,-0.31,-0.83,-0.1,1.02,-0.02,0.64
2.127,-0.31,-0.83,-0.1,1.02,-0.02,0.64
2.127,-0.31,-0.83,-0.1,1.02,-0.02,0.64
2.127,-1.12,-0.83,-0.35,1.02,-0.02,0.64
2.128,-1.2,-0.96,-0.19,1.02,-0.02,0.64
2.128,-1.2,-0.96,-0.19,1.03,0.01,0.64
2.128,-1.2,-0.96,-0.19,1.05,0.06,0.66
2.129,-1.2,-0.96,-0.19,1.07,0.11,0.67
2.136,-1.2,-0.96,-0.19,1.07,0.15,0.68
2.136,-1.2,-0.96,-0.19,1.07,0.17,0.69
2.137,-1.2,-0.96,-0.19,1.08,0.19,0.7
2.137,-1.51,-0.82,-0.6,1.08,0.19,0.7
2.142,-1.51,-0.82,-0.6,1.08,0.2,0.71
2.143,-1.51,-0.82,-0.6,1.08,0.18,0.71
2.143,-1.51,-0.82,-0.6,1.08,0.17,0.71
2.143,-1.1,-0.86,-0.77,1.08,0.17,0.71
2.143,-1.1,-0.86,-0.77,1.07,0.14,0.72
2.146,-1.1,-0.86,-0.77,1.06,0.1,0.72
2.148,-1.1,-0.86,-0.77,1.05,0.08,0.72
2.151,-1.1,-0.86,-0.77,1.04,0.04,0.72
2.167,-1.1,-0.86,-0.77,1.03,0,0.72
2.168,-1.1,-0.86,-0.77,0.94,-0.1,0.69
2.168,-1.1,-0.86,-0.77,0.94,-0.1,0.69
2.169,-1.1,-0.86,-0.77,0.94,-0.1,0.69
2.169,-1.1,-0.86,-0.77,0.92,-0.1,0.68
2.169,-1.1,-0.86,-0.77,0.9,-0.1,0.67
2.169,-1.1,-0.86,-0.77,0.9,-0.1,0.67
2.169,-1.1,-0.86,-0.77,0.87,-0.1,0.65
2.17,-1.1,-0.86,-0.77,0.83,-0.11,0.63
2.17,-0.2,-0.49,-1.86,0.83,-0.11,0.63
2.17,-0.31,-0.6,-1.7,0.83,-0.11,0.63
2.17,-0.37,-0.65,-1.63,0.83,-0.11,0.63
2.17,-0.37,-0.65,-1.63,0.79,-0.12,0.61
2.173,-0.37,-0.65,-1.63,0.77,-0.12,0.57
2.173,-0.37,-0.65,-1.63,0.77,-0.12,0.57
2.173,-0.37,-0.65,-1.63,0.72,-0.12,0.53
2.175,-0.37,-0.65,-1.63,0.67,-0.13,0.48
2.178,-0.37,-0.65,-1.63,0.65,-0.13,0.45
2.18,-0.37,-0.65,-1.63,0.61,-0.14,0.4
2.182,-0.37,-0.65,-1.63,0.57,-0.14,0.36
2.183,0.46,-0.37,-1.85,0.57,-0.14,0.36
2.183,0.46,-0.37,-1.85,0.54,-0.14,0.31
2.186,0.46,-0.37,-1.85,0.52,-0.13,0.29
2.187,0.46,-0.37,-1.85,0.49,-0.12,0.24
2.189,0.46,-0.37,-1.85,0.47,-0.1,0.2
2.205,0.46,-0.37,-1.85,0.45,-0.1,0.17
2.206,0.46,-0.37,-1.85,0.38,0.01,0.04
2.206,0.46,-0.37,-1.85,0.38,0.01,0.04
2.206,0.46,-0.37,-1.85,0.38,0.01,0.04
2.207,0.46,-0.37,-1.85,0.38,0.03,0.04
2.207,0.46,-0.37,-1.85,0.37,0.04,0.03
2.207,0.46,-0.37,-1.85,0.37,0.04,0.03
2.207,-0.39,-0.59,-1.64,0.37,0.04,0.03
2.207,-0.41,-0.64,-1.57,0.37,0.04,0.03
2.208,-0.41,-0.66,-1.54,0.37,0.04,0.03
2.208,-0.41,-0.66,-1.54,0.37,0.06,0.03
2.208,-0.41,-0.66,-1.54,0.36,0.07,0.03
2.209,-0.41,-0.66,-1.54,0.35,0.09,0.04
2.216,-0.41,-0.66,-1.54,0.34,0.09,0.05
2.217,-0.41,-0.66,-1.54,0.33,0.1,0.06
2.217,-0.74,-0.69,-1.52,0.33,0.1,0.06
2.218,-0.74,-0.69,-1.52,0.33,0.1,0.08
2.218,-0.74,-0.69,-1.52,0.32,0.1,0.1
2.219,-0.74,-0.69,-1.52,0.31,0.09,0.13
2.223,-0.74,-0.69,-1.52,0.3,0.09,0.15
2.223,-1.04,-0.88,-1.41,0.3,0.09,0.15
2.224,-1.04,-0.88,-1.41,0.29,0.08,0.17
2.226,-1.04,-0.88,-1.41,0.29,0.08,0.21
2.227,-1.04,-0.88,-1.41,0.28,0.07,0.24
2.229,-1.04,-0.88,-1.41,0.28,0.06,0.25
2.247,-1.04,-0.88,-1.41,0.27,0.03,0.28
2.247,-1.04,-0.88,-1.41,0.27,-0.02,0.4
2.247,-1.04,-0.88,-1.41,0.27,-0.02,0.4
2.248,-1.04,-0.88,-1.41,0.27,-0.03,0.41
2.248,-1.04,-0.88,-1.41,0.27,-0.03,0.41
2.248,-1.04,-0.88,-1.41,0.27,-0.03,0.42
2.248,-1.04,-0.88,-1.41,0.27,-0.03,0.42
2.249,-1.04,-0.88,-1.41,0.27,-0.03,0.43
2.252,-0.99,-0.97,-0.91,0.27,-0.03,0.43
2.253,-1.01,-0.98,-0.89,0.27,-0.03,0.43
2.253,-1.04,-1,-0.87,0.27,-0.03,0.43
2.253,-1.04,-1,-0.87,0.28,-0.03,0.45
2.254,-1.04,-1,-0.87,0.28,-0.03,0.47
2.259,-1.04,-1,-0.87,0.27,-0.03,0.48
2.259,-1.04,-1,-0.87,0.26,-0.04,0.5
2.259,-1.04,-1,-0.87,0.26,-0.04,0.51
2.259,-0.96,-0.84,-0.95,0.26,-0.04,0.51
2.259,-0.96,-0.84,-0.95,0.25,-0.04,0.52
2.26,-0.96,-0.84,-0.95,0.25,-0.05,0.54
2.263,-0.96,-0.84,-0.95,0.24,-0.05,0.56
2.264,-0.96,-0.84,-0.95,0.22,-0.06,0.57
2.264,-0.89,-0.59,-1.03,0.22,-0.06,0.57
2.267,-0.89,-0.59,-1.03,0.22,-0.07,0.58
2.268,-0.89,-0.59,-1.03,0.2,-0.07,0.59
2.273,-0.89,-0.59,-1.03,0.2,-0.09,0.6
2.286,-0.89,-0.59,-1.03,0.18,-0.11,0.62
2.287,-0.89,-0.59,-1.03,0.16,-0.17,0.64
2.287,-0.89,-0.59,-1.03,0.16,-0.17,0.64
2.287,-0.89,-0.59,-1.03,0.16,-0.17,0.64
2.287,-0.89,-0.59,-1.03,0.16,-0.17,0.64
2.287,-0.89,-0.59,-1.03,0.16,-0.18,0.64
2.288,-0.89,-0.59,-1.03,0.15,-0.19,0.65
2.288,-0.41,-0.32,-0.54,0.15,-0.19,0.65
2.288,-0.53,-0.34,-0.51,0.15,-0.19,0.65
2.288,-0.53,-0.34,-0.51,0.15,-0.21,0.64
2.291,-0.53,-0.34,-0.51,0.15,-0.22,0.64
2.291,-0.53,-0.34,-0.51,0.15,-0.24,0.63
2.293,-0.53,-0.34,-0.51,0.15,-0.26,0.63
2.293,-0.31,-0.32,-0.15,0.15,-0.26,0.63
2.294,-0.31,-0.32,-0.15,0.16,-0.28,0.62
2.295,-0.31,-0.32,-0.15,0.16,-0.29,0.61
2.298,-0.31,-0.32,-0.15,0.17,-0.31,0.6
2.299,-0.31,-0.32,-0.15,0.18,-0.33,0.58
2.306,-0.31,-0.32,-0.15,0.19,-0.34,0.58
2.306,-0.31,-0.32,-0.15,0.2,-0.35,0.56
2.306,-0.31,-0.32,-0.15,0.22,-0.37,0.54
2.307,-0.18,-0.25,0.25,0.22,-0.37,0.54
2.308,-0.18,-0.25,0.25,0.23,-0.37,0.53
2.31,-0.18,-0.25,0.25,0.24,-0.38,0.52
2.326,-0.18,-0.25,0.25,0.26,-0.38,0.51
2.326,-0.18,-0.25,0.25,0.31,-0.37,0.47
2.326,-0.18,-0.25,0.25,0.31,-0.37,0.46
2.327,-0.18,-0.25,0.25,0.31,-0.37,0.46
2.327,-0.18,-0.25,0.25,0.31,-0.37,0.45
2.327,-0.18,-0.25,0.25,0.31,-0.36,0.45
2.327,-0.18,-0.25,0.25,0.31,-0.36,0.45
2.328,-0.18,-0.25,0.25,0.32,-0.36,0.45
2.328,-0.09,-0.19,0.46,0.32,-0.36,0.45
2.328,-0.21,-0.21,0.51,0.32,-0.36,0.45
2.328,-0.26,-0.22,0.54,0.32,-0.36,0.45
2.329,-0.26,-0.22,0.54,0.32,-0.34,0.44
2.33,-0.26,-0.22,0.54,0.31,-0.33,0.43
2.336,-0.26,-0.22,0.54,0.31,-0.32,0.42
2.337,-0.09,-0.27,0.3,0.31,-0.32,0.42
2.337,-0.09,-0.27,0.3,0.3,-0.3,0.41
2.337,-0.09,-0.27,0.3,0.28,-0.29,0.4
2.337,-0.09,-0.27,0.3,0.25,-0.27,0.38
2.341,-0.09,-0.27,0.3,0.25,-0.26,0.38
2.343,-0.09,-0.27,0.3,0.22,-0.25,0.36
2.343,0.14,-0.37,-0.05,0.22,-0.25,0.36
2.344,0.14,-0.37,-0.05,0.18,-0.23,0.34
2.346,0.14,-0.37,-0.05,0.17,-0.23,0.33
2.348,0.14,-0.37,-0.05,0.14,-0.21,0.32
2.35,0.14,-0.37,-0.05,0.1,-0.2,0.3
2.367,0.14,-0.37,-0.05,0.07,-0.18,0.28
2.367,0.14,-0.37,-0.05,-0.06,-0.1,0.21
2.367,0.14,-0.37,-0.05,-0.07,-0.09,0.2
2.367,0.14,-0.37,-0.05,-0.09,-0.08,0.19
2.368,0.14,-0.37,-0.05,-0.09,-0.08,0.19
2.368,0.14,-0.37,-0.05,-0.09,-0.08,0.19
2.368,0.14,-0.37,-0.05,-0.09,-0.08,0.19
2.368,0.14,-0.37,-0.05,-0.11,-0.06,0.17
2.369,0.35,-0.3,-0.07,-0.11,-0.06,0.17
2.369,0.3,-0.29,-0.07,-0.11,-0.06,0.17
2.369,0.3,-0.29,-0.07,-0.13,-0.05,0.16
2.37,0.3,-0.29,-0.07,-0.14,-0.03,0.14
2.373,0.3,-0.29,-0.07,-0.17,-0.01,0.13
2.374,0.3,-0.29,-0.07,-0.19,0,0.11
2.375,0.29,-0.31,0.16,-0.19,0,0.11
2.375,0.29,-0.31,0.16,-0.2,0.01,0.1
2.377,0.29,-0.31,0.16,-0.21,0.02,0.08
2.379,0.29,-0.31,0.16,-0.23,0.03,0.06
2.383,0.29,-0.31,0.16,-0.24,0.04,0.05
2.384,0.29,-0.31,0.16,-0.24,0.04,0.04
2.384,0.2,-0.31,0.45,-0.24,0.04,0.04
2.386,0.2,-0.31,0.45,-0.25,0.04,0.03
2.388,0.2,-0.31,0.45,-0.26,0.05,0.02
2.39,0.2,-0.31,0.45,-0.27,0.04,0.01
2.406,0.2,-0.31,0.45,-0.27,0.04,0
2.407,0.2,-0.31,0.45,-0.28,0.03,-0.02
2.407,0.2,-0.31,0.45,-0.28,0.02,-0.02
2.407,0.2,-0.31,0.45,-0.28,0.02,-0.02
2.407,0.2,-0.31,0.45,-0.28,0.02,-0.02
2.407,0.2,-0.31,0.45,-0.29,0.02,-0.01
2.408,0.2,-0.31,0.45,-0.29,0.02,-0.01
2.408,-0.25,-0.33,0.98,-0.29,0.02,-0.01
2.408,-0.24,-0.3,0.93,-0.29,0.02,-0.01
2.408,-0.24,-0.3,0.93,-0.29,0.02,-0.01
2.41,-0.24,-0.3,0.93,-0.29,0.02,-0.01
2.41,-0.24,-0.3,0.93,-0.3,0.01,-0.01
2.412,-0.24,-0.3,0.93,-0.29,0.02,0
2.413,-0.34,-0.3,1.02,-0.29,0.02,0
2.413,-0.34,-0.3,1.02,-0.3,0.01,0
2.416,-0.34,-0.3,1.02,-0.3,0.01,0
2.418,-0.34,-0.3,1.02,-0.3,0.02,0.01
2.421,-0.34,-0.3,1.02,-0.31,0.01,0.01
2.423,-0.34,-0.3,1.02,-0.3,0.02,0.01
2.423,-0.34,-0.34,1.1,-0.3,0.02,0.01
2.423,-0.34,-0.34,1.1,-0.3,0.02,0.02
2.425,-0.34,-0.34,1.1,-0.3,0.03,0.02
2.427,-0.34,-0.34,1.1,-0.3,0.03,0.02
2.429,-0.34,-0.34,1.1,-0.3,0.03,0.02
2.445,-0.34,-0.34,1.1,-0.3,0.04,0.03
2.446,-0.34,-0.34,1.1,-0.28,0.06,0.03
2.447,-0.34,-0.34,1.1,-0.28,0.06,0.03
2.447,-0.34,-0.34,1.1,-0.28,0.06,0.03
2.447,-0.34,-0.34,1.1,-0.27,0.06,0.03
2.447,-0.34,-0.34,1.1,-0.26,0.07,0.03
2.447,-0.34,-0.34,1.1,-0.26,0.07,0.03
2.448,-0.34,-0.34,1.1,-0.25,0.07,0.03
2.448,-0.4,-0.43,1.38,-0.25,0.07,0.03
2.448,-0.39,-0.39,1.32,-0.25,0.07,0.03
2.448,-0.39,-0.39,1.32,-0.24,0.08,0.02
2.452,-0.39,-0.39,1.32,-0.23,0.08,0.02
2.454,-0.39,-0.39,1.32,-0.22,0.08,0.02
2.454,-0.39,-0.39,1.32,-0.2,0.09,0.02
2.455,-0.45,-0.4,1.37,-0.2,0.09,0.02
2.455,-0.45,-0.4,1.37,-0.19,0.09,0.02
2.458,-0.45,-0.4,1.37,-0.18,0.09,0.02
2.459,-0.45,-0.4,1.37,-0.17,0.09,0.02
2.463,-0.45,-0.4,1.37,-0.15,0.09,0.01
2.463,-0.55,-0.4,1.38,-0.15,0.09,0.01
2.464,-0.55,-0.4,1.38,-0.14,0.08,0.01
2.466,-0.55,-0.4,1.38,-0.12,0.08,0.01
2.468,-0.55,-0.4,1.38,-0.11,0.07,0
2.47,-0.55,-0.4,1.38,-0.1,0.06,0
2.487,-0.55,-0.4,1.38,-0.09,0.05,0
2.488,-0.55,-0.4,1.38,-0.03,-0.01,0
2.488,-0.55,-0.4,1.38,-0.02,-0.01,0
2.488,-0.55,-0.4,1.38,-0.02,-0.03,0
2.488,-0.55,-0.4,1.38,-0.02,-0.03,0
2.488,-0.55,-0.4,1.38,-0.02,-0.03,0
2.489,-0.55,-0.4,1.38,-0.02,-0.03,0
2.491,-0.55,-0.4,1.38,-0.01,-0.03,0
2.492,-0.72,-0.22,1.44,-0.01,-0.03,0
2.492,-0.71,-0.2,1.42,-0.01,-0.03,0
2.492,-0.71,-0.2,1.42,0,-0.06,0
2.492,-0.71,-0.2,1.42,0.02,-0.07,-0.01
2.493,-0.71,-0.2,1.42,0.02,-0.09,-0.01
2.493,-0.71,-0.2,1.42,0.03,-0.1,-0.01
2.494,-0.69,-0.18,1.54,0.03,-0.1,-0.01
2.495,-0.69,-0.18,1.54,0.04,-0.12,-0.01
2.497,-0.69,-0.18,1.54,0.05,-0.13,-0.01
2.501,-0.69,-0.18,1.54,0.07,-0.14,-0.01
2.504,-0.69,-0.18,1.54,0.07,-0.14,-0.01
2.504,-0.69,-0.18,1.54,0.08,-0.15,-0.01
2.504,-0.63,-0.31,1.54,0.08,-0.15,-0.01
2.505,-0.63,-0.31,1.54,0.09,-0.15,0
2.507,-0.63,-0.31,1.54,0.09,-0.15,0
2.51,-0.63,-0.31,1.54,0.11,-0.15,0
2.525,-0.63,-0.31,1.54,0.12,-0.14,0
2.526,-0.63,-0.31,1.54,0.14,-0.1,0.02
2.526,-0.63,-0.31,1.54,0.14,-0.1,0.02
2.526,-0.63,-0.31,1.54,0.14,-0.1,0.02
2.526,-0.63,-0.31,1.54,0.14,-0.1,0.02
2.527,-0.63,-0.31,1.54,0.14,-0.09,0.02
2.527,-0.63,-0.31,1.54,0.14,-0.08,0.02
2.527,-0.46,-0.6,1.28,0.14,-0.08,0.02
2.527,-0.46,-0.61,1.29,0.14,-0.08,0.02
2.527,-0.46,-0.61,1.29,0.15,-0.06,0.02
2.528,-0.46,-0.61,1.29,0.15,-0.04,0.02
2.53,-0.46,-0.61,1.29,0.15,-0.03,0.03
2.538,-0.46,-0.61,1.29,0.14,-0.02,0.03
2.538,-0.42,-0.68,1.09,0.14,-0.02,0.03
2.538,-0.42,-0.68,1.09,0.14,0,0.04
2.539,-0.42,-0.68,1.09,0.14,0.02,0.04
2.539,-0.42,-0.68,1.09,0.14,0.03,0.04
2.544,-0.42,-0.68,1.09,0.13,0.04,0.04
2.544,-0.42,-0.68,1.09,0.13,0.05,0.05
2.544,-0.42,-0.68,1.09,0.13,0.06,0.05
2.544,-0.37,-0.68,0.97,0.13,0.06,0.05
2.545,-0.37,-0.68,0.97,0.13,0.06,0.05
2.547,-0.37,-0.68,0.97,0.12,0.08,0.05
2.551,-0.37,-0.68,0.97,0.12,0.09,0.05
2.566,-0.37,-0.68,0.97,0.12,0.09,0.05
2.567,-0.37,-0.68,0.97,0.11,0.1,0.05
2.567,-0.37,-0.68,0.97,0.11,0.1,0.05
2.567,-0.37,-0.68,0.97,0.11,0.1,0.05
2.568,-0.37,-0.68,0.97,0.1,0.1,0.06
2.568,-0.37,-0.68,0.97,0.11,0.1,0.06
2.568,-0.37,-0.68,0.97,0.11,0.1,0.06
2.568,-0.37,-0.68,0.97,0.1,0.1,0.06
2.569,-0.39,-0.55,0.94,0.1,0.1,0.06
2.569,-0.38,-0.55,0.93,0.1,0.1,0.06
2.57,-0.38,-0.55,0.93,0.11,0.1,0.05
2.573,-0.38,-0.55,0.93,0.11,0.1,0.05
2.574,-0.38,-0.55,0.93,0.11,0.1,0.05
2.574,-0.38,-0.55,0.93,0.11,0.1,0.05
2.577,-0.41,-0.5,0.96,0.11,0.1,0.05
2.577,-0.41,-0.5,0.96,0.11,0.1,0.05
2.577,-0.41,-0.5,0.96,0.12,0.1,0.05
2.58,-0.41,-0.5,0.96,0.12,0.1,0.05
2.584,-0.41,-0.5,0.96,0.13,0.11,0.05
2.584,-0.41,-0.5,0.96,0.13,0.11,0.05
2.584,-0.47,-0.43,1.01,0.13,0.11,0.05
2.588,-0.47,-0.43,1.01,0.14,0.11,0.04
2.589,-0.47,-0.43,1.01,0.15,0.11,0.04
2.59,-0.47,-0.43,1.01,0.15,0.11,0.04
2.606,-0.47,-0.43,1.01,0.16,0.11,0.04
2.606,-0.47,-0.43,1.01,0.19,0.1,0.04
2.607,-0.47,-0.43,1.01,0.19,0.1,0.04
2.607,-0.47,-0.43,1.01,0.2,0.1,0.04
2.607,-0.47,-0.43,1.01,0.2,0.1,0.04
2.607,-0.47,-0.43,1.01,0.2,0.1,0.04
2.607,-0.47,-0.43,1.01,0.2,0.1,0.04
2.608,-0.47,-0.43,1.01,0.2,0.1,0.04
2.608,-0.5,-0.38,0.95,0.2,0.1,0.04
2.608,-0.5,-0.39,0.95,0.2,0.1,0.04
2.608,-0.49,-0.39,0.96,0.2,0.1,0.04
2.609,-0.49,-0.39,0.96,0.21,0.11,0.04
2.609,-0.49,-0.39,0.96,0.22,0.11,0.04
