time,ax,ay,az,wx,wy,wz
0.002,0.01,-0.01,0.23,0,0,0
0.002,0.01,-0.01,0.23,0,0,0
0.002,0.01,-0.01,0.23,0,0,0
0.002,0.01,-0.01,0.23,0,0,0
0.003,0.01,-0.01,0.23,0,0,0
0.003,0.02,-0.01,0.23,0,0,0
0.003,0.02,-0.01,0.23,0,0,0
0.004,0.02,-0.01,0.23,0,0,0
0.008,0.02,-0.01,0.23,0,0,0
0.008,0.02,-0.01,0.23,0,-0.01,0
0.025,0.02,-0.01,0.23,0,-0.01,0
0.025,0.02,-0.01,0.23,-0.01,0,0
0.026,0.02,-0.01,0.23,-0.01,0,0
0.026,0.02,-0.01,0.23,-0.01,0,0
0.026,0.02,-0.01,0.23,-0.01,-0.01,0
0.026,0.02,-0.01,0.23,0,-0.01,0
0.026,0.02,-0.01,0.23,0,-0.01,0
0.026,0.03,0,0.23,0,-0.01,0
0.027,0.02,0,0.23,0,-0.01,0
0.027,0.02,0,0.23,0,-0.01,0
0.027,0.02,0,0.23,0,-0.01,0
0.027,0.02,0,0.23,0,0,0
0.028,0.02,0,0.23,0,0,0
0.031,0.02,0,0.23,0,0,0
0.032,0.02,0,0.23,0,0,0
0.033,0.02,0,0.23,0,0,0
0.034,0.02,0,0.23,0,0,0
0.036,0.02,0,0.23,0,0,0
0.047,0.02,0,0.23,0,0,0
0.047,0.02,0,0.23,0,0,0
0.047,0.02,0,0.23,0,0,0
0.048,0.02,0,0.23,0,0,0
0.048,0.02,0,0.23,0,0,0
0.048,0.02,0,0.23,0,0,0
0.048,0.02,0,0.23,0,0,0
0.064,0.02,0,0.23,0,0.01,0
0.065,0.02,0,0.23,0,0,0
0.065,0.02,0,0.23,0,0,0
0.065,0.02,0,0.23,0,0.01,0
0.065,0.02,0,0.23,0,0,0
0.065,0.02,0,0.23,0,0,0
0.065,0.02,0,0.23,0,0,0
0.066,0.01,-0.01,0.23,0,0,0
0.066,0.01,-0.01,0.23,0,0,0
0.067,0.01,-0.01,0.23,0,0,0
0.067,0.01,-0.01,0.23,0,0,0
0.068,0.01,-0.01,0.23,0,0,0
0.072,0.01,-0.01,0.23,0,0.01,0
0.072,0.02,-0.01,0.22,0,0.01,0
0.073,0.02,-0.01,0.22,0,0,0
0.074,0.02,-0.01,0.22,0,0,0
0.076,0.02,-0.01,0.22,0,0,0
0.078,0.02,-0.01,0.22,0,0,0
0.081,0.02,-0.01,0.22,0,0,0
0.081,0.02,-0.01,0.22,0,0,0
0.082,0.02,-0.01,0.22,0,0,0
0.084,0.02,-0.01,0.22,0,0,0
0.086,0.02,-0.01,0.22,0,0,0
0.088,0.02,-0.01,0.22,0,0,0
0.104,0.02,-0.01,0.22,0,0,0
0.104,0.02,-0.01,0.22,0,0,0
0.104,0.02,-0.01,0.22,0,0,0
0.105,0.02,-0.01,0.22,0,0,0
0.105,0.02,-0.01,0.22,0,0,0
0.105,0.02,-0.01,0.22,-0.01,0,0
0.105,0.02,-0.01,0.22,-0.01,0,0
0.105,0.02,-0.01,0.22,0,0,0
0.106,0.02,0,0.23,0,0,0
0.106,0.02,0,0.23,0,0,0
0.106,0.02,0,0.23,-0.01,0,0
0.109,0.02,0,0.23,0,0,0
0.112,0.02,0,0.23,0,0,0
0.112,0.02,0,0.23,0,0,0
0.112,0.02,0,0.23,-0.01,0,0
0.115,0.02,0,0.23,0,0,0
0.116,0.02,0,0.23,0,0,0
0.118,0.02,0,0.23,0,0,0
0.121,0.02,0,0.23,0,0,0
0.122,0.03,0,0.23,0,0,0
0.128,0.03,0,0.23,0,0,0
0.128,0.03,0,0.23,-0.01,0,0
0.129,0.03,0,0.23,0,0,0
0.129,0.03,0,0.23,0,0,0
0.145,0.03,0,0.23,0,0,0
0.145,0.03,0,0.23,0,0,0
0.145,0.03,0,0.23,0,0,0
0.146,0.03,0,0.23,0,0,0
0.146,0.03,0,0.23,0,0,0
0.146,0.03,0,0.23,0,0,0
0.146,0.03,0,0.23,0,0,0
0.146,0.03,-0.01,0.23,0,0,0
0.146,0.03,-0.01,0.23,0,0,0
0.147,0.03,-0.01,0.23,0,0,0
0.147,0.03,-0.01,0.23,0.01,0,0
0.148,0.03,-0.01,0.23,0,0,0
0.151,0.03,-0.01,0.23,0,0,0
0.151,0.03,-0.02,0.22,0,0,0
0.152,0.03,-0.02,0.22,0,0,0
0.154,0.03,-0.02,0.22,0,0,0
0.156,0.03,-0.02,0.22,0,0,0
0.158,0.03,-0.02,0.22,0,0,0
0.161,0.03,-0.02,0.22,0,0,0
0.162,0.03,-0.02,0.22,0,0,0
0.162,0.03,-0.02,0.22,0,0,0
0.164,0.03,-0.02,0.22,0,0,0
0.166,0.03,-0.02,0.22,0,0,0
0.168,0.03,-0.02,0.22,0,0.01,0
0.185,0.03,-0.02,0.22,0,0,0
0.185,0.03,-0.02,0.22,0,0,0
0.185,0.03,-0.02,0.22,0,0,0
0.185,0.03,-0.02,0.22,0,0,0
0.186,0.03,-0.02,0.22,0,0,0
0.186,0.03,-0.02,0.22,0,0,0
0.186,0.03,-0.02,0.22,0,0,0
0.186,0.03,-0.02,0.22,0,0,0
0.186,0.02,-0.02,0.21,0,0,0
0.186,0.02,-0.02,0.21,0,0,0
0.187,0.02,-0.02,0.21,0,0,0
0.187,0.02,-0.02,0.21,0,0,0
0.189,0.02,-0.02,0.21,0,0,0
0.193,0.02,-0.02,0.21,0,0,0
0.193,0.02,-0.02,0.21,0,0,0
0.193,0.02,-0.02,0.21,0,0,0
0.194,0.02,-0.02,0.21,0,0,0
0.196,0.02,-0.02,0.21,0,0,0
0.198,0.02,-0.02,0.21,0,0,0
0.201,0.02,-0.02,0.21,0,0,0
0.201,0.02,-0.01,0.22,0,0,0
0.202,0.02,-0.01,0.22,0,0,0
0.204,0.02,-0.01,0.22,0,0,0
0.206,0.02,-0.01,0.22,0,0,0
0.208,0.02,-0.01,0.22,0,0,0
0.23,0.02,-0.01,0.22,0,0,0
0.231,0.02,-0.01,0.22,0,0,0
0.231,0.02,-0.01,0.22,0,0,0
0.231,0.02,-0.01,0.22,0,0,0
0.231,0.02,-0.01,0.22,0,0,0
0.231,0.02,-0.01,0.22,0,0,0
0.232,0.02,-0.01,0.22,0,0,0
0.232,0.02,0.01,0.23,0,0,0
0.232,0.02,0.01,0.23,0,0,0
0.232,0.02,0.01,0.23,0,0,0
0.232,0.02,0.01,0.23,0,0,0
0.236,0.02,0.01,0.23,0,0,0
0.236,0.02,0.01,0.23,0,0,0
0.236,0.02,0.01,0.23,0,0,0
0.237,0.02,0.01,0.23,0,0,0
0.237,0.02,0.01,0.23,0,0,0
0.237,0.02,0.01,0.23,0,0,0
0.238,0.02,0.01,0.23,0,0,0
0.242,0.02,0.01,0.23,0,0,0
0.242,0.02,0,0.22,0,0,0
0.242,0.02,0,0.22,0,0,0
0.245,0.02,0,0.22,0,0,0
0.247,0.02,0,0.22,0,0,0
0.249,0.02,0,0.22,0,0,0
0.263,0.02,0,0.22,0,0,0
0.264,0.02,0,0.22,0,0,0
0.264,0.02,0,0.22,0,0,0
0.264,0.02,0,0.22,0,0,0
0.264,0.02,0,0.22,0,0,0
0.264,0.02,0,0.22,0,0,0
0.265,0.02,0,0.22,0,0,0
0.265,0.02,0,0.22,0,0,0
0.265,0.02,0,0.22,0,0,0
0.265,0.02,0,0.22,0,0,0
0.266,0.02,0,0.22,0,0,0
0.268,0.02,0,0.22,0,0,0
0.273,0.02,0,0.22,0,0,0
0.273,0.02,0,0.22,0,0,0
0.273,0.02,-0.01,0.22,0,0,0
0.274,0.02,-0.01,0.22,0,0,0
0.276,0.02,-0.01,0.22,0,0,0
0.278,0.02,-0.01,0.22,0,0,0
0.281,0.02,-0.01,0.22,0,0,0
0.281,0.02,-0.01,0.22,0,0,0
0.283,0.02,-0.01,0.22,0,0,0
0.284,0.02,-0.01,0.22,0,0,0
0.286,0.02,-0.01,0.22,0,0,0
0.288,0.02,-0.01,0.22,0,0,0
0.304,0.02,-0.01,0.22,0,0,0
0.304,0.02,-0.01,0.22,0,0,0
0.304,0.02,-0.01,0.22,0,0,0
0.305,0.02,-0.01,0.22,0,0,0
0.305,0.02,-0.01,0.22,0,0,0
0.305,0.02,-0.01,0.22,0,0,0
0.305,0.02,-0.01,0.22,0,0,0
0.305,0.02,-0.01,0.23,0,0,0
0.306,0.02,-0.01,0.23,0,0,0
0.306,0.02,-0.01,0.23,0.01,0,0
0.307,0.02,-0.01,0.23,0,0,0
0.308,0.02,-0.01,0.23,0,0,0
0.312,0.02,-0.01,0.23,0,0,0
0.312,0.02,-0.01,0.23,0.01,0,0
0.312,0.02,-0.01,0.23,0.01,0,0
0.314,0.02,-0.01,0.23,0,0,0
0.316,0.02,-0.01,0.23,0,0,0
0.318,0.02,-0.01,0.23,0,0,0
0.322,0.02,-0.01,0.23,0,0,0
0.322,0.02,-0.01,0.23,0,0,0
0.324,0.02,-0.01,0.23,0,0,0
0.324,0.02,-0.01,0.23,0,0,0
0.326,0.02,-0.01,0.23,0,0,0
0.328,0.02,-0.01,0.23,-0.01,0,0
0.347,0.02,-0.01,0.23,0,0,0
0.347,0.02,-0.01,0.23,0,0,0
0.347,0.02,-0.01,0.23,0,0,0
0.348,0.02,-0.01,0.23,0,0,0
0.348,0.02,-0.01,0.23,0,0,0
0.348,0.02,-0.01,0.23,0,0,0
0.348,0.02,-0.01,0.23,0,0,0
0.348,0.01,-0.02,0.23,0,0,0
0.348,0.01,-0.02,0.23,0,0,0
0.349,0.01,-0.02,0.23,0,0,0
0.349,0.01,-0.02,0.23,0,0,0
0.349,0.01,-0.02,0.23,0,0,0
0.352,0.01,-0.02,0.23,0,0,0
0.352,0.01,-0.02,0.23,0,0,0
0.352,0.01,-0.01,0.23,0,0,0
0.355,0.01,-0.01,0.23,0,0,0
0.356,0.01,-0.01,0.23,0,0,0
0.359,0.01,-0.01,0.23,0,0,0
0.363,0.01,-0.01,0.23,-0.01,0,0
0.363,0.01,-0.01,0.23,0,0,0
0.363,0.01,-0.01,0.23,0,0,0
0.364,0.01,-0.01,0.23,0,0,0
0.367,0.01,-0.01,0.23,0,0,0
0.368,0.01,-0.01,0.23,0,0,0
0.383,0.01,-0.01,0.23,0,0,0
0.384,0.01,-0.01,0.23,0,0,0
0.384,0.01,-0.01,0.23,0,0,0
0.384,0.01,-0.01,0.23,0,0,0
0.384,0.01,-0.01,0.23,0,0,0
0.384,0.01,-0.01,0.23,0,0,0
0.384,0.01,-0.01,0.23,0,0,0
0.385,0.01,-0.01,0.24,0,0,0
0.385,0.01,-0.01,0.24,0,0,0
0.385,0.01,-0.01,0.24,0,0,0
0.386,0.01,-0.01,0.24,0,0,0
0.388,0.01,-0.01,0.24,0.01,0,0
0.391,0.01,-0.01,0.24,0,0,0
0.392,0.01,-0.01,0.24,0,0,0
0.394,0.01,-0.01,0.24,0,0,0
0.396,0.01,-0.01,0.24,0,0,0
0.397,0.01,-0.01,0.24,0,0,0
0.398,0.01,-0.01,0.24,0,0,0
0.401,0.01,-0.01,0.24,0,0,0
0.401,0.01,-0.01,0.24,0,0,0
0.402,0.01,-0.01,0.24,0,0,0
0.404,0.01,-0.01,0.24,0,0,0
0.406,0.01,-0.01,0.24,-0.01,0,0
0.408,0.01,-0.01,0.24,0,0,0
0.426,0.01,-0.01,0.24,0,0,0
0.427,0.01,-0.01,0.24,0,0,0
0.427,0.01,-0.01,0.24,0,0,0
0.427,0.01,-0.01,0.24,0,0,0
0.427,0.01,-0.01,0.24,0,0,0
0.427,0.01,-0.01,0.24,0,0,0
0.428,0.01,-0.01,0.24,0,0,0
0.428,0.02,-0.02,0.23,0,0,0
0.428,0.02,-0.02,0.23,0,0,0
0.428,0.02,-0.02,0.23,0,0,0
0.428,0.02,-0.02,0.23,0,0,0
0.429,0.02,-0.02,0.23,0,0,0
0.432,0.02,-0.02,0.23,0,0,0
0.432,0.02,-0.02,0.22,0,0,0
0.432,0.02,-0.02,0.22,0,0,0
0.435,0.02,-0.02,0.22,0,0,0
0.436,0.02,-0.02,0.22,0,0,0
0.438,0.02,-0.02,0.22,0,0,0
0.442,0.02,-0.02,0.22,0,0,0
0.442,0.01,-0.02,0.22,0,0,0
0.442,0.01,-0.02,0.22,0,0,0
0.444,0.01,-0.02,0.22,0,0,0
0.446,0.01,-0.02,0.22,0,0,0
0.448,0.01,-0.02,0.22,0,0,0
0.464,0.01,-0.02,0.22,0,0,0
0.464,0.01,-0.02,0.22,0,0,0
0.465,0.01,-0.02,0.22,0,0,0
0.465,0.01,-0.02,0.22,0,0,0
0.465,0.01,-0.02,0.22,0,0,0
0.465,0.01,-0.02,0.22,0,0,0
0.465,0.01,-0.02,0.22,0,0,0
0.466,0.02,-0.02,0.24,0,0,0
0.466,0.02,-0.02,0.24,0,0,0
0.466,0.02,-0.02,0.24,0,0,0
0.466,0.02,-0.02,0.24,0,0,0
0.468,0.02,-0.02,0.24,0.01,0,0
0.473,0.02,-0.02,0.24,0,0,0
0.473,0.02,-0.01,0.23,0,0,0
0.473,0.02,-0.01,0.23,0,0,0
0.474,0.02,-0.01,0.23,0.01,0,0
0.477,0.02,-0.01,0.23,0,0,0
0.478,0.02,-0.01,0.23,0.01,0,0
0.481,0.02,-0.01,0.23,0,0,0
0.482,0.02,-0.01,0.2,0,0,0
0.483,0.02,-0.01,0.2,0,0,0
0.484,0.02,-0.01,0.2,0,0,0
0.486,0.02,-0.01,0.2,0,0,0
0.489,0.02,-0.01,0.2,0.01,0,0
0.504,0.02,-0.01,0.2,0,0,0
0.504,0.02,-0.01,0.2,0,0,0
0.504,0.02,-0.01,0.2,0,0,0
0.505,0.02,-0.01,0.2,0,0,0
0.505,0.02,-0.01,0.2,0,0,0
0.505,0.02,-0.01,0.2,0,0,0
0.505,0.02,-0.01,0.2,0,0,0
0.505,0.02,0,0.21,0,0,0
0.506,0.02,0,0.21,0,0,0
0.506,0.02,0,0.21,0,0,0
0.507,0.02,0,0.21,0,0,0
0.508,0.02,0,0.21,0,0,0
0.511,0.02,0,0.21,0,0,0
0.512,0.02,0.01,0.22,0,0,0
0.512,0.02,0.01,0.22,0,0,0
0.514,0.02,0.01,0.22,0,0,0
0.516,0.02,0.01,0.22,0,0,0
0.519,0.02,0.01,0.22,0,0,0
0.522,0.02,0.01,0.22,-0.01,0,0
0.522,0.03,0,0.24,-0.01,0,0
0.523,0.03,0,0.24,0,0,0
0.524,0.03,0,0.24,0,-0.01,0
0.526,0.03,0,0.24,0,-0.01,0
0.528,0.03,0,0.24,0,0,0
0.544,0.03,0,0.24,-0.01,-0.01,0
0.545,0.03,0,0.24,-0.01,0,0
0.545,0.03,0,0.24,0,0,0
0.545,0.03,0,0.24,0,0,0
0.546,0.03,0,0.24,0,0,0
0.546,0.03,0,0.24,0,0,0
0.546,0.03,0,0.24,0,0,0
0.546,0.03,-0.02,0.23,0,0,0
0.546,0.03,-0.02,0.23,0,0,0
0.546,0.03,-0.02,0.23,0,0,0
0.547,0.03,-0.02,0.23,0,0,0
0.549,0.03,-0.02,0.23,0,0,0
0.552,0.03,-0.02,0.23,0,0,0
0.552,0.03,-0.02,0.23,0,0,0
0.552,0.03,-0.02,0.23,0,0,0
0.554,0.03,-0.02,0.23,0,0,0
0.556,0.03,-0.02,0.23,0.01,0,0
0.558,0.03,-0.02,0.23,0,0,0
0.562,0.03,-0.02,0.23,0.01,0,0
0.564,0.03,-0.02,0.22,0.01,0,0
0.564,0.03,-0.02,0.22,0,0,0
0.564,0.03,-0.02,0.22,0.01,0.01,0
0.566,0.03,-0.02,0.22,0.01,0.01,0
0.568,0.03,-0.02,0.22,0,0,0
0.584,0.03,-0.02,0.22,0.01,0.01,0
0.584,0.03,-0.02,0.22,0.01,0.01,0
0.585,0.03,-0.02,0.22,0.01,0.01,0
0.585,0.03,-0.02,0.22,0.01,0.02,0
0.585,0.03,-0.02,0.22,0.01,0.02,0
0.585,0.03,-0.02,0.22,0.01,0.02,0
0.585,0.03,-0.02,0.22,0.01,0.02,0
0.586,0.01,-0.01,0.23,0.01,0.02,0
0.586,0.01,-0.01,0.23,0.01,0.02,0
0.586,0.01,-0.01,0.23,0.01,0.02,0
0.586,0.01,-0.01,0.23,0.01,0.02,0
0.588,0.01,-0.01,0.23,0.01,0.03,0
0.592,0.01,-0.01,0.23,0.01,0.03,0
0.592,0.01,-0.01,0.23,0.01,0.03,0
0.593,0.01,0,0.24,0.01,0.03,0
0.595,0.01,0,0.24,0.01,0.03,0
0.597,0.01,0,0.24,0.02,0.03,0
0.598,0.01,0,0.24,0.01,0.04,0
0.601,0.01,0,0.24,0.02,0.04,0
0.602,0.01,0,0.26,0.02,0.04,0
0.602,0.01,0,0.26,0.02,0.04,0
0.604,0.01,0,0.26,0.02,0.04,0
0.608,0.01,0,0.26,0.02,0.04,0
0.609,0.01,0,0.26,0.02,0.04,0
0.624,0.01,0,0.26,0.02,0.04,0
0.625,0.01,0,0.26,0.03,0.05,0
0.625,0.01,0,0.26,0.03,0.05,0
0.625,0.01,0,0.26,0.03,0.05,0
0.625,0.01,0,0.26,0.02,0.05,0
0.625,0.01,0,0.26,0.02,0.05,0
0.625,0.01,0,0.26,0.02,0.05,0
0.625,0.01,0,0.26,0.03,0.05,0
0.625,0.03,-0.02,0.25,0.03,0.05,0
0.625,0.04,-0.02,0.25,0.03,0.05,0
0.629,0.04,-0.02,0.25,0.03,0.05,0
0.629,0.04,-0.02,0.25,0.02,0.05,0
0.631,0.04,-0.02,0.25,0.03,0.05,0
0.632,0.04,-0.03,0.24,0.03,0.05,0
0.632,0.04,-0.03,0.24,0.02,0.05,0
0.634,0.04,-0.03,0.24,0.02,0.05,0
0.636,0.04,-0.03,0.24,0.02,0.05,0
0.638,0.04,-0.03,0.24,0.02,0.05,0
0.643,0.04,-0.03,0.24,0.02,0.04,0
0.643,0.04,-0.04,0.23,0.02,0.04,0
0.647,0.04,-0.04,0.23,0.02,0.04,0
0.648,0.04,-0.04,0.23,0.02,0.04,0
0.648,0.04,-0.04,0.23,0.02,0.03,0
0.649,0.04,-0.04,0.23,0.02,0.03,0
0.665,0.04,-0.04,0.23,0.01,0.02,0
0.666,0.04,-0.04,0.23,0,-0.01,0
0.666,0.04,-0.04,0.23,0,0,0
0.666,0.04,-0.04,0.23,-0.01,-0.01,0
0.666,0.04,-0.04,0.23,-0.01,-0.01,0
0.666,0.04,-0.04,0.23,-0.01,-0.01,0
0.667,0.04,-0.04,0.23,-0.01,-0.01,0
0.667,0.04,-0.04,0.23,0,-0.01,0
0.667,0.02,-0.03,0.2,0,-0.01,0
0.667,0.03,-0.03,0.2,0,-0.01,0
0.668,0.03,-0.03,0.2,0,-0.01,0
0.668,0.03,-0.03,0.2,-0.01,-0.01,0
0.669,0.03,-0.03,0.2,-0.01,-0.02,0
0.672,0.03,-0.03,0.2,-0.01,-0.03,0
0.673,0.01,-0.01,0.2,-0.01,-0.03,0
0.674,0.01,-0.01,0.2,-0.01,-0.03,0
0.676,0.01,-0.01,0.2,-0.02,-0.03,0
0.677,0.01,-0.01,0.2,-0.02,-0.03,0
0.679,0.01,-0.01,0.2,-0.02,-0.03,0
0.681,0.01,-0.01,0.2,-0.02,-0.04,0
0.682,0.01,-0.01,0.2,-0.02,-0.04,0
0.682,0.01,-0.01,0.2,-0.02,-0.04,0
0.684,0.01,-0.01,0.2,-0.02,-0.04,0
0.687,0.01,-0.01,0.2,-0.02,-0.04,0
0.689,0.01,-0.01,0.2,-0.02,-0.04,0
0.704,0.01,-0.01,0.2,-0.02,-0.04,0
0.705,0.01,-0.01,0.2,-0.02,-0.04,0
0.706,0.01,-0.01,0.2,-0.02,-0.04,0
0.706,0.01,-0.01,0.2,-0.02,-0.04,0
0.707,0.01,-0.01,0.2,-0.02,-0.04,0
0.707,0.01,-0.01,0.2,-0.02,-0.04,0
0.707,0.01,-0.01,0.2,-0.02,-0.04,0
0.708,0,0,0.21,-0.02,-0.04,0
0.708,0,0,0.21,-0.02,-0.04,0
0.709,0,0,0.21,-0.02,-0.04,0
0.709,0,0,0.21,-0.02,-0.04,0
0.71,0,0,0.21,-0.02,-0.04,0
0.713,0,0,0.21,-0.02,-0.04,0
0.713,0,0,0.21,-0.02,-0.03,0
0.713,0,0,0.21,-0.02,-0.03,0
0.714,0,0,0.21,-0.02,-0.03,0
0.716,0,0,0.21,-0.01,-0.03,0
0.718,0,0,0.21,-0.01,-0.03,0
0.721,0,0,0.21,-0.02,-0.03,0
0.722,0.01,-0.01,0.21,-0.02,-0.03,0
0.722,0.01,-0.01,0.21,-0.01,-0.02,0
0.729,0.01,-0.01,0.21,-0.01,-0.02,0
0.733,0.01,-0.01,0.21,-0.01,-0.02,0
0.733,0.01,-0.01,0.21,-0.01,-0.02,0
0.745,0.01,-0.01,0.21,0,-0.02,0
0.745,0.01,-0.01,0.21,0,0,0
0.745,0.01,-0.01,0.21,0,0,0
0.745,0.01,-0.01,0.21,0,0,0
0.745,0.01,-0.01,0.21,0,0,0
0.745,0.01,-0.01,0.21,0,0,0
0.746,0.01,-0.01,0.21,0,0,0
0.746,0.02,-0.02,0.22,0,0,0
0.746,0.02,-0.02,0.22,0,0,0
0.746,0.02,-0.02,0.22,0,0,0
0.746,0.02,-0.02,0.22,0,0,0
0.746,0.02,-0.02,0.22,0,0,0
0.748,0.02,-0.02,0.22,0,0.01,0
0.751,0.02,-0.02,0.22,0.01,0.01,0
0.751,0.03,-0.01,0.23,0.01,0.01,0
0.752,0.03,-0.01,0.23,0.01,0.01,0
0.754,0.03,-0.01,0.23,0.01,0.02,0
0.757,0.03,-0.01,0.23,0.01,0.03,0
0.758,0.03,-0.01,0.23,0.02,0.03,0
0.761,0.03,-0.01,0.23,0.02,0.04,0
0.762,0.02,-0.01,0.23,0.02,0.04,0
0.762,0.02,-0.01,0.23,0.02,0.04,0
0.764,0.02,-0.01,0.23,0.02,0.04,0
0.766,0.02,-0.01,0.23,0.02,0.03,0
0.768,0.02,-0.01,0.23,0.02,0.03,0
0.785,0.02,-0.01,0.23,0.01,0.02,0
0.786,0.02,-0.01,0.23,-0.01,-0.01,0
0.786,0.02,-0.01,0.23,-0.01,-0.01,0
0.787,0.02,-0.01,0.23,-0.01,-0.02,0
0.787,0.02,-0.01,0.23,-0.01,-0.02,0
0.787,0.02,-0.01,0.23,-0.01,-0.02,0
0.788,0.02,-0.01,0.23,-0.01,-0.02,0
0.788,0.02,-0.01,0.23,-0.01,-0.01,0
0.788,0.02,0,0.21,-0.01,-0.01,0
0.789,0.02,0,0.21,-0.01,-0.01,0
0.789,0.02,0,0.21,-0.01,-0.01,0
0.79,0.02,0,0.21,-0.01,-0.01,0
0.79,0.02,0,0.21,0,0,0
0.795,0.02,0,0.21,0,0,0
0.795,0.02,0,0.21,0,0.01,0
0.795,0.02,0,0.23,0,0.01,0
0.795,0.02,0,0.23,0.01,0.01,0
0.796,0.02,0,0.23,0,0.01,0
0.8,0.02,0,0.23,0,0.01,0
0.801,0.02,0,0.23,0,0.01,0
0.802,0.02,0,0.22,0,0.01,0
0.802,0.02,0,0.22,0,0,0
0.804,0.02,0,0.22,0,0,0
0.807,0.02,0,0.22,-0.01,-0.01,0
0.808,0.02,0,0.22,-0.01,-0.01,0
0.828,0.02,0,0.22,-0.01,-0.02,0
0.828,0.02,0,0.22,-0.01,-0.03,0
0.829,0.02,0,0.22,-0.01,-0.03,0
0.829,0.02,0,0.22,-0.01,-0.03,0
0.829,0.02,0,0.22,-0.01,-0.03,0
0.829,0.02,0,0.22,-0.01,-0.03,0
0.83,0.02,0,0.22,-0.01,-0.03,0
0.83,0.02,0,0.22,-0.01,-0.03,0
0.83,0.02,0,0.22,-0.01,-0.03,0
0.83,0.03,-0.02,0.2,-0.01,-0.03,0
0.831,0.03,-0.02,0.2,-0.01,-0.03,0
0.831,0.03,-0.02,0.2,-0.01,-0.02,0
0.832,0.03,-0.02,0.2,-0.01,-0.03,0
0.833,0.04,-0.02,0.21,-0.01,-0.03,0
0.833,0.04,-0.02,0.21,-0.01,-0.02,0
0.834,0.04,-0.02,0.21,-0.01,-0.02,0
0.836,0.04,-0.02,0.21,-0.01,-0.02,0
0.839,0.04,-0.02,0.21,-0.01,-0.02,0
0.853,0.04,-0.02,0.21,-0.01,-0.01,0
0.853,0.04,-0.01,0.21,-0.01,-0.01,0
0.853,0.04,-0.01,0.21,-0.01,-0.02,0
0.854,0.04,-0.01,0.21,-0.01,-0.02,0
0.854,0.04,-0.01,0.21,-0.01,-0.02,0
0.854,0.04,-0.01,0.21,-0.01,-0.02,0
0.863,0.04,-0.01,0.21,-0.01,-0.02,0
0.863,0.04,-0.01,0.21,-0.01,-0.03,0
0.863,0.04,-0.01,0.21,-0.01,-0.03,0
0.863,0.04,-0.01,0.21,-0.01,-0.03,0
0.863,0.04,-0.01,0.21,-0.01,-0.03,0
0.864,0.04,-0.01,0.21,-0.02,-0.03,0
0.864,0.04,-0.01,0.21,-0.02,-0.03,0
0.864,0.01,0,0.23,-0.02,-0.03,0
0.864,0.01,0.01,0.23,-0.02,-0.03,0
0.864,0.01,0.01,0.23,-0.02,-0.03,0
0.864,0.01,0.01,0.23,-0.01,-0.03,0
0.866,0.01,0.01,0.23,-0.01,-0.03,0
0.868,0.01,0.01,0.23,-0.01,-0.02,0
0.871,0.01,0.01,0.23,-0.01,-0.02,0
0.872,0,0.01,0.24,-0.01,-0.02,0
0.872,0,0.01,0.24,-0.01,-0.01,0
0.874,0,0.01,0.24,-0.01,-0.01,0
0.876,0,0.01,0.24,0,0,0
0.88,0,0.01,0.24,0,0,0
0.881,0,0.01,0.24,0.01,0.01,0
0.881,0,0.01,0.25,0.01,0.01,0
0.882,0,0.01,0.25,0,0.01,0
0.884,0,0.01,0.25,0.01,0.01,0
0.886,0,0.01,0.25,0,0.01,0
0.889,0,0.01,0.25,0,0.01,0
0.904,0,0.01,0.25,0,0,0
0.905,0,0.01,0.25,-0.01,-0.02,0
0.905,0,0.01,0.25,-0.01,-0.02,0
0.905,0,0.01,0.25,-0.01,-0.02,0
0.905,0,0.01,0.25,-0.01,-0.02,0
0.905,0,0.01,0.25,-0.01,-0.02,0
0.906,0,0.01,0.25,-0.01,-0.02,0
0.906,-0.02,0,0.22,-0.01,-0.02,0
0.906,-0.02,0,0.22,-0.01,-0.02,0
0.906,-0.02,0,0.22,-0.01,-0.02,0
0.906,-0.02,0,0.22,-0.01,-0.02,0
0.907,-0.02,0,0.22,-0.01,-0.02,0
0.908,-0.02,0,0.22,-0.01,-0.02,0
0.912,-0.02,0,0.22,-0.01,-0.02,0
0.912,-0.02,-0.01,0.21,-0.01,-0.02,0
0.912,-0.02,-0.01,0.21,-0.01,-0.02,0
0.914,-0.02,-0.01,0.21,-0.01,-0.02,0
0.916,-0.02,-0.01,0.21,-0.01,-0.01,0
0.918,-0.02,-0.01,0.21,0,-0.01,0
0.921,-0.02,-0.01,0.21,0,0,0
0.922,-0.01,-0.01,0.23,0,0,0
0.922,-0.01,-0.01,0.23,0,-0.01,0
0.924,-0.01,-0.01,0.23,0,0,0
0.926,-0.01,-0.01,0.23,0,0,0
0.928,-0.01,-0.01,0.23,0,0,0
0.945,-0.01,-0.01,0.23,0,0,0
0.946,-0.01,-0.01,0.23,0,0.01,0
0.946,-0.01,-0.01,0.23,0,0.01,0
0.946,-0.01,-0.01,0.23,0,0.01,0
0.946,-0.01,-0.01,0.23,0,0.01,0
0.946,-0.01,-0.01,0.23,0,0.01,0
0.947,0.01,0,0.22,0,0.01,0
0.947,0.01,0,0.22,0,0.01,0
0.947,0.01,0,0.22,0,0.01,0
0.947,0.01,0,0.22,0.01,0.01,0
0.948,0.01,0,0.22,0.01,0.01,0
0.948,0.01,0,0.22,0.01,0.01,0
0.953,0.01,0,0.22,0.01,0.01,0
0.953,0.03,0,0.22,0.01,0.01,0
0.954,0.03,0,0.22,0,0.01,0
0.954,0.03,0,0.22,0,0.01,0
0.961,0.03,0,0.22,0,0.01,0
0.962,0.03,0,0.22,0.01,0.01,0
0.962,0.03,0,0.22,0,0.01,0
0.962,0.03,0,0.22,0,0.01,0
0.962,0.03,0,0.22,0,0.01,0
0.964,0.03,0,0.22,0,0.01,0
0.966,0.03,0,0.22,0,0.01,0
0.968,0.03,0,0.22,0,0.01,0
0.984,0.03,0,0.22,0,0.01,0
0.985,0.03,0,0.22,0,0.01,0
0.985,0.03,0,0.22,0,0.01,0
0.985,0.03,0,0.22,0,0.01,0
0.985,0.03,0,0.22,0,0.01,0
0.985,0.03,0,0.22,0,0.01,0
0.986,0.03,0,0.22,0,0.01,0
0.986,-0.01,0,0.23,0,0.01,0
0.986,0,0,0.23,0,0.01,0
0.986,0,0,0.23,0,0.01,0
0.987,0,0,0.23,0,0.01,0
0.987,0,0,0.23,0,0.01,0
0.988,0,0,0.23,0,0.01,0
0.992,0,0,0.23,0,0.01,0
0.993,-0.01,-0.01,0.23,0,0.01,0
0.994,-0.01,-0.01,0.23,0,0.01,0
1,-0.01,-0.01,0.23,0,0,0
1,-0.01,-0.01,0.23,0,0.01,0
1,-0.01,-0.01,0.23,0,0.01,0
1.001,-0.01,-0.01,0.23,0,0.01,0
1.001,-0.02,-0.01,0.23,0,0.01,0
1.002,-0.02,-0.01,0.23,0.01,0.01,0
1.004,-0.02,-0.01,0.23,0,0,0
1.009,-0.02,-0.01,0.23,0,0.01,0
1.009,-0.02,-0.01,0.23,0.01,0.01,0
1.029,-0.02,-0.01,0.23,0.01,0.01,0
1.03,-0.01,-0.01,0.23,0.01,0.01,0
1.03,-0.01,-0.01,0.23,0.01,0.01,0
1.03,-0.01,-0.01,0.23,0.01,0.01,0
1.031,-0.01,-0.01,0.23,0.01,0.03,0
1.031,-0.01,-0.01,0.23,0.01,0.03,0
1.031,-0.01,-0.01,0.23,0.01,0.03,0
1.031,-0.01,-0.01,0.23,0.01,0.03,0
1.031,-0.01,-0.01,0.23,0.01,0.03,0
1.032,-0.01,-0.01,0.23,0.01,0.03,0
1.032,-0.01,-0.01,0.23,0.01,0.02,0
1.032,-0.01,-0.01,0.23,0.01,0.01,0
1.032,-0.01,-0.01,0.23,0,0.01,0
1.033,-0.01,-0.01,0.23,0,0,0
1.033,-0.01,0,0.21,0,0,0
1.033,-0.01,0,0.21,0,-0.01,0
1.035,-0.01,0,0.21,-0.01,-0.01,0
1.036,-0.01,0,0.21,-0.01,-0.02,0
1.039,-0.01,0,0.21,-0.01,-0.02,0
1.044,-0.01,0,0.21,-0.01,-0.01,0
1.044,0,0,0.23,-0.01,-0.01,0
1.045,0,0,0.23,-0.01,-0.01,0
1.045,0,0,0.23,0,-0.01,0
1.046,0,0,0.23,0,-0.01,0
1.048,0,0,0.23,0,0,0
1.062,0,0,0.23,0,0,0
1.063,0,0,0.23,0,0.01,0
1.063,0,0,0.23,0,0.01,0
1.063,0,0,0.23,0,0.01,0
1.063,0,0,0.23,0,0.01,0
1.063,0,0,0.23,0,0.01,0
1.063,0,0,0.23,0,0.01,0
1.064,0.04,0,0.24,0,0.01,0
1.064,0.04,0,0.24,0,0.01,0
1.064,0.04,0,0.24,0,0,0
1.066,0.04,0,0.24,0,0.01,0
1.068,0.04,0,0.24,0,0.01,0
1.071,0.04,0,0.24,0.01,0.01,0
1.072,0.02,0.01,0.24,0.01,0.01,0
1.072,0.02,0.01,0.24,0,0,0
1.074,0.02,0.01,0.24,0.01,0.01,0
1.076,0.02,0.01,0.24,0,0.01,0
1.079,0.02,0.01,0.24,0,0,0
1.081,0.02,0.01,0.24,0,0,0
1.081,0.04,0.01,0.17,0,0,0
1.082,0.04,0.01,0.17,0,-0.01,0
1.084,0.04,0.01,0.17,0,-0.01,0
1.086,0.04,0.01,0.17,0,-0.01,0
1.088,0.04,0.01,0.17,-0.01,-0.01,0
1.104,0.04,0.01,0.17,-0.01,-0.01,0
1.104,0.04,0.01,0.17,-0.01,-0.03,0
1.105,0.04,0.01,0.17,-0.01,-0.03,0
1.105,0.04,0.01,0.17,-0.01,-0.03,0
1.105,0.04,0.01,0.17,-0.01,-0.03,0
1.105,0.04,0.01,0.17,-0.01,-0.03,0
1.105,0.04,0.01,0.17,-0.01,-0.03,0
1.106,-0.02,-0.02,0.19,-0.01,-0.03,0
1.106,-0.03,-0.02,0.19,-0.01,-0.03,0
1.106,-0.03,-0.02,0.19,-0.01,-0.03,0
1.106,-0.03,-0.02,0.19,-0.01,-0.04,0
1.107,-0.03,-0.02,0.19,-0.02,-0.04,0
1.108,-0.03,-0.02,0.19,-0.02,-0.04,0
1.112,-0.03,-0.02,0.19,-0.02,-0.04,0
1.112,-0.03,0,0.2,-0.02,-0.04,0
1.112,-0.03,0,0.2,-0.02,-0.05,0
1.115,-0.03,0,0.2,-0.02,-0.04,0
1.117,-0.03,0,0.2,-0.02,-0.02,0
1.118,-0.03,0,0.2,0,0,0
1.122,-0.04,0,0.2,0,0,0
1.122,-0.04,0,0.2,0,0,0
1.123,-0.04,0,0.2,0.01,0.01,0
1.127,-0.04,0,0.2,0.01,0.03,0
1.128,-0.04,0,0.2,0.02,0.05,0
1.128,-0.04,0,0.2,0.03,0.07,0
1.145,-0.04,0,0.2,0.04,0.09,0
1.146,-0.04,0,0.2,0.04,0.09,0
1.146,-0.04,0,0.2,0.04,0.09,0
1.146,-0.04,0,0.2,0.04,0.08,0
1.146,-0.04,0,0.2,0.04,0.08,0
1.147,-0.04,0,0.2,0.03,0.07,0
1.147,-0.04,0,0.2,0.03,0.07,0
1.147,-0.04,0,0.2,0.03,0.07,0
1.147,-0.04,0,0.13,0.03,0.07,0
1.147,-0.03,-0.01,0.13,0.03,0.07,0
1.147,-0.02,-0.01,0.13,0.03,0.07,0
1.148,-0.02,-0.01,0.13,0.02,0.05,0
1.149,-0.02,-0.01,0.13,0.02,0.04,0
1.152,-0.02,-0.01,0.13,0.01,0.02,0
1.152,0.02,-0.03,0.06,0.01,0.02,0
1.153,0.02,-0.03,0.06,0.01,0.02,0
1.154,0.02,-0.03,0.06,0.01,0.03,0
1.157,0.02,-0.03,0.06,0.01,0.03,0
1.159,0.02,-0.03,0.06,0.02,0.05,0
1.162,0.02,-0.03,0.06,0.02,0.03,0
1.162,-0.05,-0.03,0.31,0.02,0.03,0
1.163,-0.05,-0.03,0.31,0.01,0.01,0
1.164,-0.05,-0.03,0.31,0,0,0
1.166,-0.05,-0.03,0.31,-0.02,-0.02,0
1.168,-0.05,-0.03,0.31,-0.01,-0.03,0
1.184,-0.05,-0.03,0.31,-0.02,-0.03,0
1.185,-0.05,-0.03,0.31,-0.01,-0.03,0
1.185,-0.05,-0.03,0.31,-0.01,-0.03,0
1.186,-0.05,-0.03,0.31,-0.01,-0.03,0
1.186,-0.05,-0.03,0.31,-0.01,-0.03,0
1.186,-0.05,-0.03,0.31,-0.01,-0.04,0
1.186,-0.05,-0.03,0.31,-0.02,-0.05,0
1.186,-0.05,0.01,0.02,-0.02,-0.05,0
1.187,-0.06,0.01,0.02,-0.02,-0.05,0
1.187,-0.06,0.01,0.02,-0.03,-0.06,0
1.187,-0.06,0.01,0.02,-0.04,-0.07,0
1.189,-0.06,0.01,0.02,-0.04,-0.08,0
1.192,-0.06,0.01,0.02,-0.04,-0.08,0
1.193,-0.06,0.01,0.02,-0.04,-0.1,0
1.193,-0.06,0.01,0.02,-0.05,-0.1,0
1.195,-0.06,0.01,0.02,-0.05,-0.1,0
1.196,-0.06,0.01,0.02,-0.05,-0.12,0
1.198,-0.06,0.01,0.02,-0.07,-0.18,0
1.202,-0.06,0.01,0.02,-0.09,-0.21,0
1.202,-0.26,0.12,-0.48,-0.09,-0.21,0
1.203,-0.26,0.12,-0.48,-0.13,-0.29,0
1.204,-0.26,0.12,-0.48,-0.18,-0.35,0
1.206,-0.26,0.12,-0.48,-0.2,-0.39,0
1.209,-0.26,0.12,-0.48,-0.2,-0.4,0
1.23,-0.26,0.12,-0.48,-0.04,-0.08,0
1.231,-0.26,0.12,-0.48,0.02,-0.04,-0.13
1.238,-0.26,0.12,-0.48,0.02,-0.04,-0.13
1.238,-0.26,0.12,-0.48,-0.01,-0.04,-0.13
1.238,-0.26,0.12,-0.48,-0.03,-0.04,-0.13
1.238,-0.26,0.12,-0.48,-0.03,-0.04,-0.13
1.238,-0.26,0.12,-0.48,-0.05,-0.03,-0.14
1.239,-0.36,-0.05,-0.49,-0.05,-0.03,-0.14
1.239,-0.37,-0.05,-0.49,-0.05,-0.03,-0.14
1.239,-0.37,-0.05,-0.49,-0.03,-0.03,-0.15
1.239,-0.37,-0.05,-0.49,-0.01,-0.03,-0.17
1.239,-0.37,-0.05,-0.49,-0.02,-0.02,-0.17
1.239,-0.37,-0.05,-0.49,-0.03,-0.02,-0.17
1.239,-0.24,-0.41,0.03,-0.03,-0.02,-0.17
1.24,-0.24,-0.41,0.03,-0.02,-0.02,-0.18
1.24,-0.24,-0.41,0.03,-0.02,-0.03,-0.18
1.24,-0.24,-0.41,0.03,-0.02,-0.03,-0.18
1.24,-0.24,-0.41,0.03,-0.04,-0.03,-0.19
1.242,-0.24,-0.41,0.03,-0.08,-0.02,-0.21
1.243,-0.37,-0.88,-0.38,-0.08,-0.02,-0.21
1.243,-0.37,-0.88,-0.38,-0.12,-0.01,-0.23
1.245,-0.37,-0.88,-0.38,-0.14,-0.01,-0.24
1.247,-0.37,-0.88,-0.38,-0.17,-0.02,-0.25
1.248,-0.37,-0.88,-0.38,-0.19,0,-0.25
1.265,-0.37,-0.88,-0.38,-0.18,0.02,-0.27
1.265,-0.37,-0.88,-0.38,-0.19,0.08,-0.24
1.266,-0.37,-0.88,-0.38,-0.18,0.06,-0.22
1.266,-0.37,-0.88,-0.38,-0.18,0.05,-0.21
1.266,-0.37,-0.88,-0.38,-0.18,0.05,-0.21
1.266,-0.37,-0.88,-0.38,-0.18,0.05,-0.21
1.266,-0.37,-0.88,-0.38,-0.18,0.05,-0.21
1.267,-0.61,-0.17,0.42,-0.18,0.05,-0.21
1.267,-0.6,-0.15,0.42,-0.18,0.05,-0.21
1.267,-0.58,-0.13,0.42,-0.18,0.05,-0.21
1.268,-0.58,-0.13,0.42,-0.16,0.02,-0.18
1.268,-0.58,-0.13,0.42,-0.15,0.01,-0.16
1.269,-0.58,-0.13,0.42,-0.14,-0.05,-0.13
1.273,-0.58,-0.13,0.42,-0.11,-0.11,-0.1
1.273,-0.58,-0.13,0.42,-0.1,-0.16,-0.07
1.274,-0.51,0.31,1.11,-0.1,-0.16,-0.07
1.276,-0.51,0.31,1.11,-0.09,-0.18,-0.06
1.281,-0.51,0.31,1.11,-0.08,-0.2,-0.04
1.282,-0.51,0.31,1.11,-0.08,-0.2,-0.03
1.282,-0.51,0.31,1.11,-0.08,-0.2,-0.03
1.282,-0.08,0.19,0.12,-0.08,-0.2,-0.03
1.283,-0.08,0.19,0.12,-0.09,-0.19,-0.03
1.284,-0.08,0.19,0.12,-0.09,-0.18,-0.04
1.286,-0.08,0.19,0.12,-0.09,-0.16,-0.05
1.289,-0.08,0.19,0.12,-0.09,-0.15,-0.05
1.304,-0.08,0.19,0.12,-0.09,-0.13,-0.06
1.304,-0.08,0.19,0.12,-0.08,-0.11,-0.04
1.304,-0.08,0.19,0.12,-0.08,-0.11,-0.04
1.304,-0.08,0.19,0.12,-0.08,-0.11,-0.04
1.305,-0.08,0.19,0.12,-0.08,-0.11,-0.02
1.305,-0.08,0.19,0.12,-0.08,-0.11,-0.02
1.305,-0.08,0.19,0.12,-0.07,-0.11,0
1.305,0.33,0.39,0.25,-0.07,-0.11,0
1.305,0.31,0.4,0.25,-0.07,-0.11,0
1.306,0.31,0.4,0.25,-0.07,-0.16,0.04
1.307,0.31,0.4,0.25,-0.06,-0.23,0.05
1.309,0.31,0.4,0.25,-0.05,-0.32,0.06
1.312,0.31,0.4,0.25,-0.06,-0.37,0.06
1.313,0.31,0.4,0.25,-0.06,-0.43,0.06
1.313,0.77,0.61,1.56,-0.06,-0.43,0.06
1.314,0.77,0.61,1.56,-0.08,-0.47,0.06
1.316,0.77,0.61,1.56,-0.1,-0.5,0.08
1.319,0.77,0.61,1.56,-0.11,-0.51,0.09
1.322,0.77,0.61,1.56,-0.14,-0.53,0.1
1.322,0.41,0.38,0.68,-0.14,-0.53,0.1
1.324,0.41,0.38,0.68,-0.15,-0.55,0.12
1.325,0.41,0.38,0.68,-0.16,-0.56,0.12
1.329,0.41,0.38,0.68,-0.17,-0.58,0.13
1.33,0.41,0.38,0.68,-0.16,-0.6,0.13
1.344,0.41,0.38,0.68,-0.16,-0.62,0.14
1.345,0.41,0.38,0.68,-0.12,-0.66,0.09
1.345,0.41,0.38,0.68,-0.12,-0.66,0.09
1.345,0.41,0.38,0.68,-0.12,-0.66,0.09
1.346,0.41,0.38,0.68,-0.12,-0.67,0.08
1.346,0.41,0.38,0.68,-0.11,-0.67,0.07
1.347,0.41,0.38,0.68,-0.11,-0.67,0.07
1.347,-0.39,-0.2,0.38,-0.11,-0.67,0.07
1.348,-0.51,-0.18,0.38,-0.11,-0.67,0.07
1.348,-0.51,-0.18,0.38,-0.11,-0.7,0.05
1.348,-0.51,-0.18,0.38,-0.1,-0.74,0.05
1.349,-0.51,-0.18,0.38,-0.08,-0.89,0.05
1.352,-0.51,-0.18,0.38,-0.07,-1.07,0.07
1.352,-0.86,0.53,3.26,-0.07,-1.07,0.07
1.353,-0.86,0.53,3.26,-0.07,-1.28,0.1
1.354,-0.86,0.53,3.26,-0.07,-1.38,0.12
1.356,-0.86,0.53,3.26,-0.07,-1.61,0.18
1.361,-0.86,0.53,3.26,-0.07,-1.88,0.23
1.362,-0.86,0.53,3.26,-0.06,-2.17,0.27
1.362,-0.95,1.18,5.02,-0.06,-2.17,0.27
1.363,-0.95,1.18,5.02,-0.06,-2.32,0.29
1.365,-0.95,1.18,5.02,-0.05,-2.62,0.35
1.366,-0.95,1.18,5.02,-0.03,-2.92,0.41
1.369,-0.95,1.18,5.02,-0.03,-3.07,0.45
1.385,-0.95,1.18,5.02,-0.03,-3.35,0.53
1.386,-0.95,1.18,5.02,-0.11,-3.9,0.98
1.386,-0.95,1.18,5.02,-0.12,-3.89,1.04
1.386,-0.95,1.18,5.02,-0.13,-3.9,1.08
1.387,-0.95,1.18,5.02,-0.13,-3.9,1.08
1.39,-0.95,1.18,5.02,-0.13,-3.9,1.08
1.39,-0.95,1.18,5.02,-0.13,-3.9,1.08
1.391,-0.95,1.18,5.02,-0.14,-3.9,1.11
1.391,1.89,1.67,0.42,-0.14,-3.9,1.11
1.391,1.57,1.68,0.46,-0.14,-3.9,1.11
1.391,1.19,1.7,0.51,-0.14,-3.9,1.11
1.392,1.19,1.7,0.51,-0.17,-3.95,1.1
1.392,1.19,1.7,0.51,-0.17,-3.99,1.09
1.393,1.19,1.7,0.51,-0.17,-4.01,1.08
1.394,-0.32,1.08,1.17,-0.17,-4.01,1.08
1.394,-0.32,1.08,1.17,-0.16,-4.05,1.03
1.395,-0.32,1.08,1.17,-0.16,-4.12,0.98
1.396,-0.32,1.08,1.17,-0.13,-4.2,1
1.398,-0.32,1.08,1.17,-0.11,-4.23,1.02
1.402,-0.32,1.08,1.17,-0.07,-4.29,1.07
1.402,0.04,2.83,0.96,-0.07,-4.29,1.07
1.403,0.04,2.83,0.96,0.01,-4.31,1.19
1.404,0.04,2.83,0.96,0.07,-4.27,1.37
1.408,0.04,2.83,0.96,0.1,-4.22,1.47
1.409,0.04,2.83,0.96,0.16,-4.06,1.69
1.425,0.04,2.83,0.96,0.25,-3.89,1.92
1.426,0.04,2.83,0.96,0.75,-2.88,1.92
1.426,0.04,2.83,0.96,0.75,-2.88,1.92
1.426,0.04,2.83,0.96,0.75,-2.88,1.92
1.426,0.04,2.83,0.96,0.75,-2.88,1.92
1.427,0.04,2.83,0.96,0.79,-2.71,1.65
1.427,-0.71,-2.23,-6.38,0.79,-2.71,1.65
1.427,-1.34,-2.22,-6.21,0.79,-2.71,1.65
1.427,-1.34,-2.22,-6.21,0.81,-2.51,1.27
1.428,-1.34,-2.22,-6.21,0.74,-2.04,0.36
1.428,-1.34,-2.22,-6.21,0.46,-1.48,-0.38
1.429,-1.34,-2.22,-6.21,0.28,-1.13,-0.58
1.432,-1.34,-2.22,-6.21,-0.12,-0.35,-0.71
1.432,-3.73,-4.43,-9.04,-0.12,-0.35,-0.71
1.433,-3.73,-4.43,-9.04,-0.46,0.31,-0.64
1.435,-3.73,-4.43,-9.04,-0.59,0.59,-0.59
1.436,-3.73,-4.43,-9.04,-0.59,0.94,-0.53
1.438,-3.73,-4.43,-9.04,-0.51,0.96,-0.46
1.442,-3.73,-4.43,-9.04,-0.34,0.74,-0.35
1.442,-2.66,-1.44,3.47,-0.34,0.74,-0.35
1.444,-2.66,-1.44,3.47,-0.24,0.56,-0.28
1.446,-2.66,-1.44,3.47,-0.06,0.18,-0.14
1.446,-2.66,-1.44,3.47,0.06,-0.1,-0.02
1.449,-2.66,-1.44,3.47,0.11,-0.23,0.11
1.467,-2.66,-1.44,3.47,0.11,-0.24,0.14
1.468,-2.66,-1.44,3.47,0.13,0.08,0.53
1.468,-2.66,-1.44,3.47,0.13,0.08,0.53
1.468,-2.66,-1.44,3.47,0.13,0.08,0.53
1.468,-2.66,-1.44,3.47,0.14,0.06,0.57
1.468,-2.66,-1.44,3.47,0.15,0.04,0.61
1.469,-2.66,-1.44,3.47,0.15,0.04,0.61
1.469,-4.23,1.54,1.39,0.15,0.04,0.61
1.469,-4.24,1.54,1.4,0.15,0.04,0.61
1.469,-4.24,1.54,1.4,0.17,0.02,0.65
1.47,-4.24,1.54,1.4,0.21,-0.05,0.73
1.47,-4.24,1.54,1.4,0.23,-0.1,0.82
1.473,-4.24,1.54,1.4,0.25,-0.15,0.9
1.473,-4.24,1.54,1.4,0.26,-0.16,0.95
1.473,-3.19,1.65,1.99,0.26,-0.16,0.95
1.476,-3.19,1.65,1.99,0.29,-0.18,1.08
1.477,-3.19,1.65,1.99,0.32,-0.18,1.24
1.478,-3.19,1.65,1.99,0.36,-0.18,1.4
1.482,-3.19,1.65,1.99,0.38,-0.18,1.47
1.483,-3.19,1.65,1.99,0.41,-0.2,1.59
1.483,-3.81,2.31,1.72,0.41,-0.2,1.59
1.485,-3.81,2.31,1.72,0.43,-0.23,1.67
1.487,-3.81,2.31,1.72,0.43,-0.25,1.7
1.489,-3.81,2.31,1.72,0.44,-0.27,1.75
1.504,-3.81,2.31,1.72,0.42,-0.29,1.77
1.505,-3.81,2.31,1.72,0.33,-0.37,1.74
1.505,-3.81,2.31,1.72,0.33,-0.37,1.74
1.505,-3.81,2.31,1.72,0.31,-0.39,1.72
1.505,-3.81,2.31,1.72,0.28,-0.4,1.7
1.505,-3.81,2.31,1.72,0.28,-0.4,1.7
1.506,-3.81,2.31,1.72,0.28,-0.4,1.7
1.506,1.81,1.7,0.58,0.28,-0.4,1.7
1.506,1.76,1.75,0.6,0.28,-0.4,1.7
1.506,1.76,1.75,0.6,0.21,-0.42,1.69
1.508,1.76,1.75,0.6,0.13,-0.4,1.66
1.51,1.76,1.75,0.6,0.09,-0.36,1.64
1.512,1.76,1.75,0.6,0.02,-0.26,1.58
1.512,3.44,1.72,1.95,0.02,-0.26,1.58
1.513,3.44,1.72,1.95,-0.04,-0.15,1.49
1.515,3.44,1.72,1.95,-0.06,0.03,1.37
1.517,3.44,1.72,1.95,-0.06,0.14,1.29
1.518,3.44,1.72,1.95,-0.05,0.35,1.12
1.521,3.44,1.72,1.95,0,0.59,0.92
1.522,7.29,0.79,6.46,0,0.59,0.92
1.522,7.29,0.79,6.46,0.08,0.83,0.69
1.525,7.29,0.79,6.46,0.13,0.96,0.56
1.53,7.29,0.79,6.46,0.25,1.2,0.31
1.53,7.29,0.79,6.46,0.41,1.44,0.05
1.549,7.29,0.79,6.46,0.49,1.55,-0.08
1.55,7.29,0.79,6.46,1.46,2.36,-1
1.55,7.29,0.79,6.46,1.46,2.36,-1
1.553,7.29,0.79,6.46,1.46,2.36,-1
1.553,7.29,0.79,6.46,1.52,2.33,-1.06
1.554,7.29,0.79,6.46,1.6,2.25,-1.11
1.554,7.29,0.79,6.46,1.6,2.25,-1.11
1.554,7.29,0.79,6.46,1.9,2.29,-1.15
1.556,7.29,0.79,6.46,2.11,2.36,-1.14
1.556,3.67,-1.1,16.85,2.11,2.36,-1.14
1.557,4.03,-1.31,16.72,2.11,2.36,-1.14
1.557,4.24,-1.49,16.65,2.11,2.36,-1.14
1.557,4.24,-1.49,16.65,2.6,2.58,-1.09
1.557,4.24,-1.49,16.65,3.13,2.83,-0.98
1.558,-3.14,1.52,23.05,3.13,2.83,-0.98
1.558,-3.14,1.52,23.05,3.4,2.96,-0.91
1.558,-3.14,1.52,23.05,3.91,3.19,-0.77
1.56,-3.14,1.52,23.05,4.35,3.41,-0.63
1.561,-3.14,1.52,23.05,4.71,3.58,-0.5
1.562,-3.14,1.52,23.05,4.85,3.64,-0.45
1.562,-3.14,1.52,23.05,5.09,3.76,-0.37
1.563,-1.5,-3.48,17.65,5.09,3.76,-0.37
1.565,-1.5,-3.48,17.65,5.27,3.89,-0.32
1.567,-1.5,-3.48,17.65,5.44,4.06,-0.31
1.568,-1.5,-3.48,17.65,5.51,4.16,-0.32
1.585,-1.5,-3.48,17.65,5.65,4.38,-0.36
1.585,-1.5,-3.48,17.65,5.94,5.4,-0.69
1.585,-1.5,-3.48,17.65,5.94,5.4,-0.69
1.586,-1.5,-3.48,17.65,5.94,5.4,-0.69
1.586,-1.5,-3.48,17.65,5.93,5.53,-0.75
1.586,-1.5,-3.48,17.65,5.91,5.64,-0.81
1.586,-1.5,-3.48,17.65,5.91,5.64,-0.81
1.586,4.95,-5.05,5.05,5.91,5.64,-0.81
1.586,5.9,-6.18,5.05,5.91,5.64,-0.81
1.587,5.9,-6.18,5.05,5.83,5.84,-0.94
1.587,5.9,-6.18,5.05,5.73,6.03,-1.09
1.588,5.9,-6.18,5.05,5.6,6.19,-1.26
1.592,5.9,-6.18,5.05,5.52,6.27,-1.35
1.593,8.54,-6.89,0.66,5.52,6.27,-1.35
1.593,8.54,-6.89,0.66,5.35,6.43,-1.54
1.594,8.54,-6.89,0.66,5.17,6.56,-1.74
1.597,8.54,-6.89,0.66,5.07,6.62,-1.84
1.598,8.54,-6.89,0.66,4.87,6.75,-2.06
1.601,8.54,-6.89,0.66,4.69,6.83,-2.27
1.601,10.49,-6.34,-1.22,4.69,6.83,-2.27
1.602,10.49,-6.34,-1.22,4.52,6.85,-2.49
1.604,10.49,-6.34,-1.22,4.44,6.83,-2.59
1.607,10.49,-6.34,-1.22,4.29,6.81,-2.82
1.609,10.49,-6.34,-1.22,4.16,6.78,-3.04
1.625,10.49,-6.34,-1.22,4.03,6.79,-3.25
1.626,10.49,-6.34,-1.22,3.77,6.75,-3.81
1.626,10.49,-6.34,-1.22,3.77,6.75,-3.81
1.626,10.49,-6.34,-1.22,3.77,6.73,-3.85
1.627,10.49,-6.34,-1.22,3.77,6.71,-3.88
1.627,10.49,-6.34,-1.22,3.77,6.71,-3.88
1.627,10.49,-6.34,-1.22,3.77,6.71,-3.88
1.627,10.49,-6.34,-1.22,3.76,6.67,-3.95
1.628,8.55,-5.83,-0.05,3.76,6.67,-3.95
1.629,10.02,-6.42,0.44,3.76,6.67,-3.95
1.63,10.75,-6.65,0.76,3.76,6.67,-3.95
1.631,10.75,-6.65,0.76,3.76,6.65,-3.97
1.631,10.75,-6.65,0.76,3.79,6.63,-4.02
1.632,10.75,-6.65,0.76,3.85,6.61,-4.07
1.632,10.75,-6.65,0.76,3.89,6.6,-4.12
1.633,8.98,-4.5,0.3,3.89,6.6,-4.12
1.634,8.98,-4.5,0.3,3.91,6.6,-4.13
1.636,8.98,-4.5,0.3,3.94,6.56,-4.16
1.638,8.98,-4.5,0.3,3.96,6.48,-4.16
1.642,8.98,-4.5,0.3,3.96,6.43,-4.15
1.643,5.53,-2.26,-0.5,3.96,6.43,-4.15
1.644,5.53,-2.26,-0.5,3.95,6.33,-4.13
1.649,5.53,-2.26,-0.5,3.92,6.25,-4.08
1.649,5.53,-2.26,-0.5,3.89,6.22,-4.01
1.649,5.53,-2.26,-0.5,3.86,6.2,-3.96
1.664,5.53,-2.26,-0.5,3.82,6.16,-3.87
1.668,5.53,-2.26,-0.5,3.65,6.03,-3.39
1.669,5.53,-2.26,-0.5,3.65,6.03,-3.39
1.669,5.53,-2.26,-0.5,3.65,6.03,-3.39
1.669,5.53,-2.26,-0.5,3.65,6.03,-3.39
1.669,5.53,-2.26,-0.5,3.62,6,-3.33
1.67,5.53,-2.26,-0.5,3.6,5.95,-3.27
1.67,0.84,-2.59,-2.16,3.6,5.95,-3.27
1.67,2.04,-2.76,-1.21,3.6,5.95,-3.27
1.67,2.04,-2.76,-1.21,3.54,5.89,-3.15
1.671,2.04,-2.76,-1.21,3.48,5.83,-3.03
1.671,2.04,-2.76,-1.21,3.42,5.79,-2.91
1.673,2.04,-2.76,-1.21,3.38,5.76,-2.85
1.673,2.04,-2.76,-1.21,3.3,5.67,-2.73
1.673,0.54,-2.35,-1.81,3.3,5.67,-2.73
1.675,0.54,-2.35,-1.81,3.23,5.54,-2.62
1.676,0.54,-2.35,-1.81,3.15,5.39,-2.51
1.678,0.54,-2.35,-1.81,3.11,5.32,-2.46
1.682,0.54,-2.35,-1.81,3.03,5.19,-2.37
1.682,1.76,-3.25,-1.75,3.03,5.19,-2.37
1.682,1.76,-3.25,-1.75,2.96,5.07,-2.29
1.684,1.76,-3.25,-1.75,2.92,5.02,-2.25
1.686,1.76,-3.25,-1.75,2.83,4.92,-2.19
1.688,1.76,-3.25,-1.75,2.74,4.83,-2.13
1.704,1.76,-3.25,-1.75,2.64,4.74,-2.07
1.705,1.76,-3.25,-1.75,2.15,4.35,-1.88
1.705,1.76,-3.25,-1.75,2.15,4.35,-1.88
1.705,1.76,-3.25,-1.75,2.15,4.35,-1.88
1.705,1.76,-3.25,-1.75,2.09,4.3,-1.86
1.705,1.76,-3.25,-1.75,2.02,4.25,-1.83
1.706,1.76,-3.25,-1.75,2.02,4.25,-1.83
1.706,1.85,-3.18,-3.26,2.02,4.25,-1.83
1.706,2.46,-3.12,-2.37,2.02,4.25,-1.83
1.706,2.71,-3.06,-1.95,2.02,4.25,-1.83
1.711,2.71,-3.06,-1.95,1.89,4.15,-1.8
1.711,2.71,-3.06,-1.95,1.82,4.09,-1.78
1.712,2.71,-3.06,-1.95,1.68,3.98,-1.74
1.713,2.71,-3.06,-1.95,1.55,3.84,-1.71
1.714,2.71,-3.06,-1.95,1.42,3.68,-1.68
1.714,2.37,-2.61,-1.78,1.42,3.68,-1.68
1.719,2.37,-2.61,-1.78,1.37,3.6,-1.66
1.719,2.37,-2.61,-1.78,1.25,3.41,-1.64
1.719,2.37,-2.61,-1.78,1.17,3.22,-1.6
1.722,2.37,-2.61,-1.78,1.1,3.02,-1.56
1.722,2.22,-3.16,-1.21,1.1,3.02,-1.56
1.722,2.22,-3.16,-1.21,1.07,2.92,-1.54
1.725,2.22,-3.16,-1.21,1.02,2.71,-1.5
1.727,2.22,-3.16,-1.21,0.99,2.48,-1.46
1.729,2.22,-3.16,-1.21,0.98,2.37,-1.44
1.746,2.22,-3.16,-1.21,0.97,2.11,-1.41
1.747,2.22,-3.16,-1.21,0.93,0.73,-1.22
1.747,2.22,-3.16,-1.21,0.93,0.56,-1.19
1.747,2.22,-3.16,-1.21,0.93,0.39,-1.15
1.747,2.22,-3.16,-1.21,0.93,0.39,-1.15
1.748,2.22,-3.16,-1.21,0.93,0.39,-1.15
1.748,2.22,-3.16,-1.21,0.93,0.39,-1.15
1.748,2.22,-3.16,-1.21,0.93,0.21,-1.12
1.748,0.94,-2.16,-0.08,0.93,0.21,-1.12
1.748,1.07,-2.07,0.13,0.93,0.21,-1.12
1.749,1.14,-2,0.24,0.93,0.21,-1.12
1.749,1.14,-2,0.24,0.93,-0.15,-1.04
1.749,1.14,-2,0.24,0.93,-0.51,-0.95
1.753,1.14,-2,0.24,0.93,-0.7,-0.91
1.753,1.14,-2,0.24,0.94,-1.07,-0.81
1.753,0.64,-1.45,0.88,0.94,-1.07,-0.81
1.754,0.64,-1.45,0.88,0.97,-1.45,-0.7
1.756,0.64,-1.45,0.88,1,-1.82,-0.59
1.758,0.64,-1.45,0.88,1.01,-2.01,-0.53
1.762,0.64,-1.45,0.88,1.04,-2.4,-0.42
1.762,1.14,-1.54,1.54,1.04,-2.4,-0.42
1.763,1.14,-1.54,1.54,1.07,-2.78,-0.3
1.765,1.14,-1.54,1.54,1.11,-3.15,-0.19
1.766,1.14,-1.54,1.54,1.13,-3.34,-0.14
1.768,1.14,-1.54,1.54,1.18,-3.7,-0.03
1.783,1.14,-1.54,1.54,1.24,-4.07,0.07
1.784,1.14,-1.54,1.54,1.5,-5.45,0.43
1.784,1.14,-1.54,1.54,1.5,-5.45,0.43
1.784,1.14,-1.54,1.54,1.5,-5.45,0.43
1.784,1.14,-1.54,1.54,1.5,-5.45,0.43
1.785,1.14,-1.54,1.54,1.55,-5.61,0.46
1.785,1.14,-1.54,1.54,1.58,-5.76,0.49
1.785,2.95,-2.46,1.72,1.58,-5.76,0.49
1.785,2.61,-2.6,1.06,1.58,-5.76,0.49
1.786,2.61,-2.6,1.06,1.62,-6.03,0.53
1.786,2.61,-2.6,1.06,1.63,-6.28,0.53
1.788,2.61,-2.6,1.06,1.63,-6.38,0.52
1.792,2.61,-2.6,1.06,1.63,-6.58,0.48
1.793,4.03,-1.77,-0.76,1.63,-6.58,0.48
1.793,4.03,-1.77,-0.76,1.61,-6.75,0.42
1.796,4.03,-1.77,-0.76,1.59,-6.83,0.38
1.797,4.03,-1.77,-0.76,1.55,-6.95,0.29
1.799,4.03,-1.77,-0.76,1.48,-7.04,0.18
1.802,4.03,-1.77,-0.76,1.38,-7.1,0.04
1.802,4.83,-0.67,-2.85,1.38,-7.1,0.04
1.803,4.83,-0.67,-2.85,1.3,-7.12,-0.03
1.804,4.83,-0.67,-2.85,1.11,-7.15,-0.19
1.806,4.83,-0.67,-2.85,0.88,-7.17,-0.35
1.809,4.83,-0.67,-2.85,0.62,-7.19,-0.49
1.826,4.83,-0.67,-2.85,0.51,-7.21,-0.55
1.826,4.83,-0.67,-2.85,-0.51,-7.3,-0.88
1.827,4.83,-0.67,-2.85,-0.51,-7.3,-0.88
1.827,4.83,-0.67,-2.85,-0.51,-7.3,-0.88
1.827,4.83,-0.67,-2.85,-0.61,-7.31,-0.9
1.827,4.83,-0.67,-2.85,-0.71,-7.31,-0.91
1.828,4.83,-0.67,-2.85,-0.71,-7.31,-0.91
1.828,4.83,-0.67,-2.85,-0.8,-7.31,-0.93
1.828,5.17,0.13,-4.19,-0.8,-7.31,-0.93
1.828,4.45,0.23,-5.18,-0.8,-7.31,-0.93
1.829,4.05,0.32,-5.65,-0.8,-7.31,-0.93
1.829,4.05,0.32,-5.65,-0.97,-7.32,-0.95
1.829,4.05,0.32,-5.65,-1.12,-7.31,-0.97
1.833,4.05,0.32,-5.65,-1.25,-7.3,-0.99
1.833,4.05,0.32,-5.65,-1.32,-7.29,-1
1.834,4.04,0.27,-4.29,-1.32,-7.29,-1
1.835,4.04,0.27,-4.29,-1.43,-7.26,-1.01
1.836,4.04,0.27,-4.29,-1.54,-7.23,-1.03
1.838,4.04,0.27,-4.29,-1.59,-7.21,-1.03
1.847,4.04,0.27,-4.29,-1.67,-7.16,-1.05
1.848,4.04,0.27,-4.29,-1.76,-7.11,-1.06
1.849,3.41,0.19,-3.46,-1.76,-7.11,-1.06
1.849,3.41,0.19,-3.46,-1.82,-7.07,-1.06
1.849,3.41,0.19,-3.46,-1.86,-7.04,-1.07
1.855,3.41,0.19,-3.46,-1.92,-7,-1.06
1.864,3.41,0.19,-3.46,-1.96,-6.96,-1.05
1.865,3.41,0.19,-3.46,-2.09,-6.81,-0.91
1.865,3.41,0.19,-3.46,-2.09,-6.66,-0.88
1.865,3.41,0.19,-3.46,-2.07,-6.46,-0.85
1.866,3.41,0.19,-3.46,-2.07,-6.46,-0.85
1.866,3.41,0.19,-3.46,-2.07,-6.46,-0.85
1.866,3.41,0.19,-3.46,-2.06,-6.26,-0.83
1.866,0.35,0.44,0.96,-2.06,-6.26,-0.83
1.867,-0.63,0.84,0.16,-2.06,-6.26,-0.83
1.867,-0.63,0.84,0.16,-2.06,-6.07,-0.81
1.867,-0.63,0.84,0.16,-2.05,-5.68,-0.77
1.87,-0.63,0.84,0.16,-2.04,-5.47,-0.75
1.872,-0.63,0.84,0.16,-1.99,-5.04,-0.71
1.872,0.77,0.53,1.95,-1.99,-5.04,-0.71
1.873,0.77,0.53,1.95,-1.93,-4.67,-0.67
1.878,0.77,0.53,1.95,-1.83,-4.36,-0.63
1.878,0.77,0.53,1.95,-1.77,-4.23,-0.61
1.878,0.77,0.53,1.95,-1.62,-3.97,-0.56
1.882,0.77,0.53,1.95,-1.46,-3.73,-0.52
1.882,0.77,0.53,1.95,-1.37,-3.6,-0.5
1.883,0.38,0.14,3.11,-1.37,-3.6,-0.5
1.885,0.38,0.14,3.11,-1.19,-3.36,-0.46
1.886,0.38,0.14,3.11,-1.01,-3.11,-0.42
1.891,0.38,0.14,3.11,-0.82,-2.87,-0.38
1.904,0.38,0.14,3.11,-0.72,-2.75,-0.36
1.905,0.38,0.14,3.11,0.01,-1.74,-0.23
1.905,0.38,0.14,3.11,0.1,-1.61,-0.22
1.905,0.38,0.14,3.11,0.1,-1.61,-0.22
1.905,0.38,0.14,3.11,0.1,-1.61,-0.22
1.905,0.38,0.14,3.11,0.18,-1.48,-0.21
1.905,0.38,0.14,3.11,0.26,-1.35,-0.2
1.906,-0.12,-1.39,3.15,0.26,-1.35,-0.2
1.906,-0.48,-1.32,2.99,0.26,-1.35,-0.2
1.906,-0.48,-1.32,2.99,0.34,-1.23,-0.2
1.907,-0.48,-1.32,2.99,0.49,-0.98,-0.19
1.909,-0.48,-1.32,2.99,0.63,-0.75,-0.18
1.912,-0.48,-1.32,2.99,0.77,-0.53,-0.18
1.912,-0.48,-1.32,2.99,0.83,-0.44,-0.18
1.912,-0.45,-1.51,3.7,0.83,-0.44,-0.18
1.914,-0.45,-1.51,3.7,0.96,-0.29,-0.17
1.916,-0.45,-1.51,3.7,1.09,-0.19,-0.17
1.918,-0.45,-1.51,3.7,1.22,-0.16,-0.15
1.921,-0.45,-1.51,3.7,1.28,-0.15,-0.15
1.922,0.18,-1.33,4.38,1.28,-0.15,-0.15
1.922,0.18,-1.33,4.38,1.41,-0.18,-0.13
1.925,0.18,-1.33,4.38,1.53,-0.22,-0.11
1.926,0.18,-1.33,4.38,1.59,-0.25,-0.11
1.93,0.18,-1.33,4.38,1.7,-0.32,-0.09
1.946,0.18,-1.33,4.38,1.81,-0.41,-0.08
1.947,0.18,-1.33,4.38,2.22,-0.83,-0.05
1.947,0.18,-1.33,4.38,2.22,-0.83,-0.05
1.947,0.18,-1.33,4.38,2.22,-0.83,-0.05
1.947,0.18,-1.33,4.38,2.22,-0.83,-0.05
1.948,0.18,-1.33,4.38,2.27,-0.89,-0.05
1.948,0.18,-1.33,4.38,2.32,-0.94,-0.05
1.948,1.26,-0.84,4.69,2.32,-0.94,-0.05
1.948,1.16,-1.19,4.8,2.32,-0.94,-0.05
1.948,1.09,-1.38,4.86,2.32,-0.94,-0.05
1.949,1.09,-1.38,4.86,2.42,-1.05,-0.07
1.949,1.09,-1.38,4.86,2.52,-1.16,-0.09
1.949,1.09,-1.38,4.86,2.57,-1.2,-0.09
1.954,1.09,-1.38,4.86,2.67,-1.3,-0.12
1.954,1.53,-0.85,4.28,2.67,-1.3,-0.12
1.954,1.53,-0.85,4.28,2.78,-1.4,-0.14
1.955,1.53,-0.85,4.28,2.88,-1.48,-0.16
1.957,1.53,-0.85,4.28,2.94,-1.52,-0.18
1.959,1.53,-0.85,4.28,3.04,-1.59,-0.2
1.963,1.43,-1.07,4.36,3.04,-1.59,-0.2
1.963,1.43,-1.07,4.36,3.15,-1.65,-0.23
1.963,1.43,-1.07,4.36,3.25,-1.69,-0.26
1.964,1.43,-1.07,4.36,3.3,-1.71,-0.28
1.966,1.43,-1.07,4.36,3.4,-1.73,-0.3
1.968,1.43,-1.07,4.36,3.49,-1.74,-0.33
1.986,1.43,-1.07,4.36,3.54,-1.74,-0.34
1.987,1.43,-1.07,4.36,3.83,-1.64,-0.46
1.987,1.43,-1.07,4.36,3.85,-1.62,-0.47
1.987,1.43,-1.07,4.36,3.87,-1.61,-0.48
1.988,1.43,-1.07,4.36,3.87,-1.61,-0.48
1.988,1.43,-1.07,4.36,3.87,-1.61,-0.48
1.988,1.43,-1.07,4.36,3.87,-1.61,-0.48
1.988,1.43,-1.07,4.36,3.91,-1.57,-0.51
1.988,1.42,-0.11,0.94,3.91,-1.57,-0.51
1.989,1.18,-0.69,1.2,3.91,-1.57,-0.51
1.989,1.18,-0.69,1.2,3.92,-1.56,-0.52
1.989,1.18,-0.69,1.2,3.94,-1.54,-0.54
1.992,1.18,-0.69,1.2,3.96,-1.52,-0.57
1.993,1.18,-0.69,1.2,3.97,-1.51,-0.58
1.993,1.18,-0.6,0.17,3.97,-1.51,-0.58
1.994,1.18,-0.6,0.17,3.97,-1.5,-0.6
1.996,1.18,-0.6,0.17,3.98,-1.51,-0.63
1.998,1.18,-0.6,0.17,3.98,-1.53,-0.66
2.002,1.18,-0.6,0.17,3.99,-1.55,-0.68
2.002,1.37,-0.88,-0.17,3.99,-1.55,-0.68
2.002,1.37,-0.88,-0.17,3.99,-1.58,-0.71
2.004,1.37,-0.88,-0.17,3.99,-1.64,-0.75
2.007,1.37,-0.88,-0.17,3.99,-1.7,-0.79
2.009,1.37,-0.88,-0.17,3.99,-1.74,-0.81
2.023,1.37,-0.88,-0.17,3.98,-1.81,-0.85
2.024,1.37,-0.88,-0.17,3.95,-2.12,-0.93
2.024,1.37,-0.88,-0.17,3.95,-2.12,-0.93
2.024,1.37,-0.88,-0.17,3.95,-2.12,-0.93
2.024,1.37,-0.88,-0.17,3.95,-2.12,-0.93
2.024,1.37,-0.88,-0.17,3.94,-2.16,-0.93
2.025,1.37,-0.88,-0.17,3.93,-2.2,-0.93
2.025,0.42,-0.72,-0.84,3.93,-2.2,-0.93
2.025,0.23,-1.28,-0.45,3.93,-2.2,-0.93
2.027,0.23,-1.28,-0.45,3.91,-2.27,-0.92
2.027,0.23,-1.28,-0.45,3.89,-2.34,-0.91
2.029,0.23,-1.28,-0.45,3.85,-2.4,-0.88
2.032,0.13,-1.54,-0.25,3.85,-2.4,-0.88
2.033,0.13,-1.54,-0.25,3.83,-2.43,-0.86
2.038,0.13,-1.54,-0.25,3.79,-2.49,-0.82
2.038,0.13,-1.54,-0.25,3.75,-2.54,-0.77
2.038,0.13,-1.54,-0.25,3.72,-2.56,-0.75
2.039,0.13,-1.54,-0.25,3.66,-2.59,-0.69
2.046,0.13,-1.54,-0.25,3.6,-2.61,-0.62
2.046,0.13,-1.54,-0.25,3.53,-2.63,-0.55
2.046,-1.35,-0.85,-1.36,3.53,-2.63,-0.55
2.046,-1.35,-0.85,-1.36,3.49,-2.63,-0.51
2.047,-1.35,-0.85,-1.36,3.41,-2.62,-0.43
2.053,-1.35,-0.85,-1.36,3.32,-2.61,-0.35
2.065,-1.35,-0.85,-1.36,3.23,-2.58,-0.27
2.066,-1.35,-0.85,-1.36,2.85,-2.31,0.03
2.066,-1.35,-0.85,-1.36,2.85,-2.31,0.03
2.066,-1.35,-0.85,-1.36,2.85,-2.31,0.03
2.066,-1.35,-0.85,-1.36,2.8,-2.26,0.07
2.067,-1.35,-0.85,-1.36,2.75,-2.2,0.1
2.067,-1.35,-0.85,-1.36,2.75,-2.2,0.1
2.067,-1.35,-0.85,-1.36,2.66,-2.09,0.15
2.067,-1.17,-0.45,-2.72,2.66,-2.09,0.15
2.067,-1.48,-0.85,-2.36,2.66,-2.09,0.15
2.068,-1.62,-1.03,-2.18,2.66,-2.09,0.15
2.068,-1.62,-1.03,-2.18,2.61,-2.03,0.18
2.069,-1.62,-1.03,-2.18,2.53,-1.9,0.23
2.071,-1.62,-1.03,-2.18,2.44,-1.76,0.28
2.071,-1.04,-1.03,-2.41,2.44,-1.76,0.28
2.072,-1.04,-1.03,-2.41,2.35,-1.6,0.32
2.079,-1.04,-1.03,-2.41,2.32,-1.52,0.34
2.079,-1.04,-1.03,-2.41,2.24,-1.36,0.38
2.08,-1.04,-1.03,-2.41,2.17,-1.19,0.41
2.082,-1.04,-1.03,-2.41,2.13,-1.11,0.43
2.082,-1.04,-1.03,-2.41,2.07,-0.94,0.45
2.083,-0.52,-1.3,-2.5,2.07,-0.94,0.45
2.084,-0.52,-1.3,-2.5,2,-0.76,0.48
2.086,-0.52,-1.3,-2.5,1.94,-0.6,0.49
2.089,-0.52,-1.3,-2.5,1.91,-0.51,0.5
2.105,-0.52,-1.3,-2.5,1.85,-0.35,0.51
2.106,-0.52,-1.3,-2.5,1.57,0.26,0.56
2.106,-0.52,-1.3,-2.5,1.57,0.26,0.56
2.106,-0.52,-1.3,-2.5,1.54,0.32,0.57
2.106,-0.52,-1.3,-2.5,1.51,0.38,0.57
2.107,-0.52,-1.3,-2.5,1.51,0.38,0.57
2.107,-0.52,-1.3,-2.5,1.51,0.38,0.57
2.107,-0.52,-1.3,-2.5,1.47,0.43,0.58
2.107,0.35,-1.31,-2.48,1.47,0.43,0.58
2.108,0.29,-1.42,-2.34,1.47,0.43,0.58
2.108,0.26,-1.52,-2.21,1.47,0.43,0.58
2.108,0.26,-1.52,-2.21,1.4,0.53,0.6
2.11,0.26,-1.52,-2.21,1.33,0.61,0.62
2.112,0.26,-1.52,-2.21,1.29,0.65,0.63
2.112,0.26,-1.52,-2.21,1.21,0.71,0.65
2.113,0.17,-1.47,-2.31,1.21,0.71,0.65
2.114,0.17,-1.47,-2.31,1.13,0.77,0.67
2.116,0.17,-1.47,-2.31,1.04,0.83,0.69
2.118,0.17,-1.47,-2.31,1,0.85,0.7
2.121,0.17,-1.47,-2.31,0.91,0.9,0.72
2.122,0.19,-1.18,-2.39,0.91,0.9,0.72
2.123,0.19,-1.18,-2.39,0.83,0.94,0.74
2.125,0.19,-1.18,-2.39,0.79,0.95,0.75
2.127,0.19,-1.18,-2.39,0.7,0.97,0.77
2.13,0.19,-1.18,-2.39,0.62,0.99,0.79
2.144,0.19,-1.18,-2.39,0.54,1,0.8
2.144,0.19,-1.18,-2.39,0.24,1.1,0.86
2.144,0.19,-1.18,-2.39,0.24,1.1,0.86
2.144,0.19,-1.18,-2.39,0.24,1.1,0.86
2.145,0.19,-1.18,-2.39,0.24,1.1,0.86
2.145,0.19,-1.18,-2.39,0.21,1.12,0.87
2.145,0.19,-1.18,-2.39,0.19,1.13,0.88
2.145,0.14,0.09,-2.11,0.19,1.13,0.88
2.145,0.12,0.04,-2.03,0.19,1.13,0.88
2.146,0.12,0.04,-2.03,0.13,1.16,0.89
2.147,0.12,0.04,-2.03,0.11,1.18,0.9
2.149,0.12,0.04,-2.03,0.06,1.2,0.91
2.152,0.12,0.04,-2.03,0.02,1.23,0.91
2.152,0.48,0.15,-1.59,0.02,1.23,0.91
2.152,0.48,0.15,-1.59,-0.02,1.25,0.92
2.155,0.48,0.15,-1.59,-0.03,1.25,0.92
2.157,0.48,0.15,-1.59,-0.06,1.27,0.92
2.164,0.48,0.15,-1.59,-0.07,1.28,0.91
2.164,0.48,0.15,-1.59,-0.09,1.28,0.9
2.165,0.48,0.15,-1.59,-0.09,1.28,0.89
2.165,1.03,0.04,-1,-0.09,1.28,0.89
2.165,1.03,0.04,-1,-0.1,1.27,0.88
2.166,1.03,0.04,-1,-0.11,1.26,0.86
2.17,1.03,0.04,-1,-0.11,1.26,0.85
2.184,1.03,0.04,-1,-0.11,1.24,0.83
2.184,1.03,0.04,-1,-0.09,1.14,0.75
2.185,1.03,0.04,-1,-0.09,1.12,0.74
2.185,1.03,0.04,-1,-0.09,1.12,0.74
2.185,1.03,0.04,-1,-0.09,1.12,0.74
2.185,1.03,0.04,-1,-0.08,1.09,0.71
2.186,1.03,0.04,-1,-0.08,1.09,0.71
2.186,1.77,-0.02,-0.24,-0.08,1.09,0.71
2.186,1.76,-0.02,-0.24,-0.08,1.09,0.71
2.186,1.76,-0.02,-0.24,-0.07,1.07,0.7
2.186,1.76,-0.02,-0.24,-0.07,1.03,0.68
2.188,1.76,-0.02,-0.24,-0.07,0.98,0.65
2.193,1.76,-0.02,-0.24,-0.07,0.96,0.64
2.193,1.76,-0.02,-0.24,-0.07,0.92,0.62
2.195,2.06,0.03,-0.15,-0.07,0.92,0.62
2.196,2.06,0.03,-0.15,-0.07,0.86,0.59
2.198,2.06,0.03,-0.15,-0.07,0.8,0.57
2.199,2.06,0.03,-0.15,-0.07,0.78,0.56
2.202,2.06,0.03,-0.15,-0.08,0.72,0.54
2.202,2.28,0.24,-0.13,-0.08,0.72,0.54
2.203,2.28,0.24,-0.13,-0.09,0.68,0.52
2.204,2.28,0.24,-0.13,-0.1,0.62,0.5
2.206,2.28,0.24,-0.13,-0.1,0.6,0.49
2.209,2.28,0.24,-0.13,-0.11,0.56,0.47
2.224,2.28,0.24,-0.13,-0.11,0.52,0.45
2.225,2.28,0.24,-0.13,-0.13,0.41,0.37
2.225,2.28,0.24,-0.13,-0.12,0.39,0.36
2.225,2.28,0.24,-0.13,-0.12,0.38,0.35
2.225,2.28,0.24,-0.13,-0.12,0.38,0.35
2.226,2.28,0.24,-0.13,-0.12,0.38,0.35
2.226,2.28,0.24,-0.13,-0.12,0.38,0.35
2.226,2.28,0.24,-0.13,-0.11,0.36,0.32
2.226,2.57,0.01,0.48,-0.11,0.36,0.32
2.226,2.54,0.02,0.46,-0.11,0.36,0.32
2.227,2.54,0.02,0.46,-0.1,0.35,0.3
2.228,2.54,0.02,0.46,-0.09,0.34,0.28
2.232,2.54,0.02,0.46,-0.07,0.33,0.26
2.232,2.5,-0.26,1.1,-0.07,0.33,0.26
2.233,2.5,-0.26,1.1,-0.04,0.31,0.23
2.234,2.5,-0.26,1.1,-0.02,0.31,0.22
2.236,2.5,-0.26,1.1,0.01,0.31,0.19
2.238,2.5,-0.26,1.1,0.06,0.3,0.17
2.249,2.5,-0.26,1.1,0.1,0.3,0.15
2.25,2.27,-0.3,1.69,0.1,0.3,0.15
2.25,2.27,-0.3,1.69,0.13,0.3,0.14
2.256,2.27,-0.3,1.69,0.18,0.31,0.12
2.256,2.27,-0.3,1.69,0.24,0.32,0.11
2.256,2.27,-0.3,1.69,0.29,0.33,0.1
2.264,2.27,-0.3,1.69,0.32,0.34,0.09
2.265,2.27,-0.3,1.69,0.52,0.37,0.07
2.265,2.27,-0.3,1.69,0.54,0.37,0.07
2.265,2.27,-0.3,1.69,0.54,0.37,0.07
2.265,2.27,-0.3,1.69,0.56,0.37,0.07
2.265,2.27,-0.3,1.69,0.58,0.37,0.08
2.265,2.27,-0.3,1.69,0.58,0.37,0.08
2.265,2.27,-0.3,1.69,0.6,0.37,0.08
2.265,1.76,-0.13,1.46,0.6,0.37,0.08
2.265,1.76,-0.17,1.53,0.6,0.37,0.08
2.268,1.76,-0.17,1.53,0.63,0.36,0.08
2.269,1.76,-0.17,1.53,0.67,0.36,0.07
2.273,1.76,-0.17,1.53,0.71,0.38,0.07
2.273,1.76,-0.17,1.53,0.72,0.39,0.07
2.273,1.82,0.68,1.35,0.72,0.39,0.07
2.277,1.82,0.68,1.35,0.76,0.43,0.08
2.281,1.82,0.68,1.35,0.78,0.46,0.09
2.281,1.82,0.68,1.35,0.8,0.47,0.1
2.282,1.82,0.68,1.35,0.81,0.48,0.13
2.282,1.47,0.19,0.81,0.81,0.48,0.13
2.282,1.47,0.19,0.81,0.83,0.5,0.16
2.286,1.47,0.19,0.81,0.83,0.53,0.18
2.287,1.47,0.19,0.81,0.83,0.55,0.19
2.289,1.47,0.19,0.81,0.81,0.6,0.21
2.305,1.47,0.19,0.81,0.79,0.64,0.23
2.305,1.47,0.19,0.81,0.66,0.7,0.22
2.305,1.47,0.19,0.81,0.66,0.7,0.22
2.306,1.47,0.19,0.81,0.66,0.7,0.22
2.306,1.47,0.19,0.81,0.64,0.69,0.22
2.306,1.47,0.19,0.81,0.62,0.69,0.22
2.306,1.47,0.19,0.81,0.62,0.69,0.22
2.306,1.47,0.19,0.81,0.59,0.66,0.21
2.306,1.61,-0.44,-0.12,0.59,0.66,0.21
2.306,1.62,-0.51,0.01,0.59,0.66,0.21
2.307,1.63,-0.54,0.06,0.59,0.66,0.21
2.307,1.63,-0.54,0.06,0.55,0.62,0.2
2.309,1.63,-0.54,0.06,0.54,0.6,0.19
2.316,1.63,-0.54,0.06,0.51,0.55,0.18
2.317,1.63,-0.54,0.06,0.48,0.5,0.17
2.317,1.63,-0.54,0.06,0.46,0.45,0.15
2.317,1.34,-0.33,0.26,0.46,0.45,0.15
2.317,1.34,-0.33,0.26,0.45,0.42,0.14
2.321,1.34,-0.33,0.26,0.43,0.38,0.12
2.322,1.34,-0.33,0.26,0.42,0.34,0.08
2.322,1.37,0.31,0.63,0.42,0.34,0.08
2.322,1.37,0.31,0.63,0.41,0.34,0.06
2.324,1.37,0.31,0.63,0.41,0.33,0.02
2.326,1.37,0.31,0.63,0.41,0.33,-0.02
2.329,1.37,0.31,0.63,0.42,0.33,-0.04
2.346,1.37,0.31,0.63,0.43,0.33,-0.05
2.347,1.37,0.31,0.63,0.49,0.39,-0.1
2.347,1.37,0.31,0.63,0.5,0.39,-0.11
2.347,1.37,0.31,0.63,0.5,0.4,-0.11
2.347,1.37,0.31,0.63,0.5,0.4,-0.11
2.348,1.37,0.31,0.63,0.5,0.4,-0.11
2.348,1.37,0.31,0.63,0.5,0.4,-0.11
2.348,1.37,0.29,0.67,0.5,0.4,-0.11
2.348,1.38,0.27,0.7,0.5,0.4,-0.11
2.348,1.39,0.25,0.74,0.5,0.4,-0.11
2.349,1.39,0.25,0.74,0.5,0.4,-0.11
2.353,1.39,0.25,0.74,0.51,0.4,-0.12
2.353,1.39,0.25,0.74,0.51,0.4,-0.13
2.353,1.39,0.25,0.74,0.5,0.39,-0.13
2.354,1.39,0.25,0.74,0.5,0.39,-0.13
2.354,0.9,-0.3,0.58,0.5,0.39,-0.13
2.365,0.9,-0.3,0.58,0.48,0.37,-0.13
2.366,0.9,-0.3,0.58,0.47,0.34,-0.12
2.366,0.9,-0.3,0.58,0.45,0.31,-0.11
2.369,0.9,-0.3,0.58,0.44,0.29,-0.1
2.369,0.9,-0.3,0.58,0.41,0.24,-0.08
2.369,0.66,-0.64,0.23,0.41,0.24,-0.08
2.37,0.66,-0.64,0.23,0.39,0.2,-0.06
2.37,0.66,-0.64,0.23,0.37,0.17,-0.05
2.37,0.66,-0.64,0.23,0.34,0.12,-0.04
2.383,0.66,-0.64,0.23,0.31,0.08,-0.02
2.384,0.66,-0.64,0.23,0.18,-0.06,0.04
2.384,0.66,-0.64,0.23,0.18,-0.06,0.04
2.384,0.66,-0.64,0.23,0.18,-0.06,0.04
2.385,0.66,-0.64,0.23,0.18,-0.06,0.04
2.385,0.66,-0.64,0.23,0.17,-0.07,0.05
2.385,0.66,-0.64,0.23,0.16,-0.08,0.06
2.385,0.54,-0.4,-0.08,0.16,-0.08,0.06
2.386,0.52,-0.42,-0.04,0.16,-0.08,0.06
2.386,0.52,-0.42,-0.04,0.13,-0.1,0.07
2.387,0.52,-0.42,-0.04,0.11,-0.12,0.08
2.388,0.52,-0.42,-0.04,0.1,-0.13,0.08
2.392,0.52,-0.42,-0.04,0.08,-0.14,0.09
2.393,0.54,-0.23,0.25,0.08,-0.14,0.09
2.393,0.54,-0.23,0.25,0.07,-0.16,0.1
2.395,0.54,-0.23,0.25,0.06,-0.18,0.1
2.396,0.54,-0.23,0.25,0.05,-0.18,0.1
2.398,0.54,-0.23,0.25,0.05,-0.2,0.1
2.402,0.54,-0.23,0.25,0.05,-0.22,0.08
2.402,0.82,0.21,0.78,0.05,-0.22,0.08
2.402,0.82,0.21,0.78,0.06,-0.23,0.03
2.404,0.82,0.21,0.78,0.07,-0.23,0.02
2.406,0.82,0.21,0.78,0.09,-0.21,-0.01
2.409,0.82,0.21,0.78,0.11,-0.2,-0.03
2.426,0.82,0.21,0.78,0.12,-0.19,-0.04
2.427,0.82,0.21,0.78,0.32,-0.19,-0.05
2.428,0.82,0.21,0.78,0.32,-0.19,-0.05
2.428,0.82,0.21,0.78,0.32,-0.19,-0.05
2.429,0.82,0.21,0.78,0.34,-0.2,-0.05
2.429,0.82,0.21,0.78,0.35,-0.21,-0.05
2.43,0.82,0.21,0.78,0.35,-0.21,-0.05
2.43,0.62,-0.69,1.96,0.35,-0.21,-0.05
2.431,0.61,-0.7,2,0.35,-0.21,-0.05
2.432,0.61,-0.72,2.02,0.35,-0.21,-0.05
2.432,0.61,-0.72,2.02,0.38,-0.22,-0.06
2.433,0.61,-0.72,2.02,0.39,-0.23,-0.07
2.433,0.61,-0.72,2.02,0.4,-0.24,-0.09
2.434,0.61,-0.72,2.02,0.41,-0.25,-0.1
2.434,0.77,-0.74,1.51,0.41,-0.25,-0.1
2.435,0.77,-0.74,1.51,0.42,-0.26,-0.11
2.435,0.77,-0.74,1.51,0.43,-0.27,-0.11
2.438,0.77,-0.74,1.51,0.43,-0.28,-0.1
2.44,0.77,-0.74,1.51,0.44,-0.28,-0.08
2.441,0.77,-0.74,1.51,0.45,-0.28,-0.07
2.441,0.4,-0.95,1.09,0.45,-0.28,-0.07
2.442,0.4,-0.95,1.09,0.46,-0.28,-0.05
2.444,0.4,-0.95,1.09,0.47,-0.27,-0.01
2.446,0.4,-0.95,1.09,0.47,-0.25,0.02
2.448,0.4,-0.95,1.09,0.47,-0.25,0.03
2.465,0.4,-0.95,1.09,0.46,-0.24,0.07
2.466,0.4,-0.95,1.09,0.38,-0.25,0.18
2.466,0.4,-0.95,1.09,0.38,-0.25,0.18
2.466,0.4,-0.95,1.09,0.36,-0.25,0.19
2.466,0.4,-0.95,1.09,0.36,-0.25,0.19
2.466,0.4,-0.95,1.09,0.35,-0.26,0.19
